Timestamp,AccX,AccY,AccZ,GyroX,GyroY,GyroZ,MagX,MagY,MagZ,OrientationAzimuth,OrientationPitch,OrientationRoll,GameRotX,GameRotY,GameRotZ,GameRotW,Pressure
1747655980719,-0.25603202,4.8885365,8.743374,-0.13561198,0.087506376,-0.09262237,8.45625,-66.525,-7.2000003,145.16032,-30.147947,0.22503439,0.18127808,0.18377292,0.6829731,0.68331075,0.0
1747655980739,-0.12921242,4.7832522,8.745767,-0.09529491,-0.033444848,-0.07735075,8.606251,-66.4875,-8.00625,145.54144,-29.605595,-0.8095551,0.17527053,0.1848491,0.6822669,0.6852904,0.0
1747655980759,0.016749758,4.723432,8.7266245,-0.08918626,-0.034666575,-0.093233235,8.55,-66.412506,-7.93125,145.691,-29.257372,-0.8410172,0.17433807,0.18199094,0.6823741,0.6861859,0.0
1747655980780,-0.23928227,4.699504,8.673982,-0.10079269,0.006872229,-0.07918335,8.53125,-66.506256,-8.306251,145.7945,-29.001165,-0.67760235,0.17349878,0.18013519,0.6822244,0.68703663,0.0
1747655980800,-0.28235307,4.7377887,8.496913,-0.12522727,0.038026333,-0.03825541,8.868751,-66.543755,-8.625,145.92786,-28.81484,-0.8642134,0.17137009,0.18011267,0.6818762,0.6879219,0.0
1747655980822,-0.086141616,4.7114677,8.85823,-0.17715079,0.07284562,-0.01687514,8.6625,-66.80625,-8.175,145.99573,-28.64097,-1.1034819,0.16960093,0.1802683,0.6818315,0.68836373,0.0
1747655980842,-0.14356937,4.658826,9.138189,-0.11484258,0.100945406,-0.03459022,8.71875,-66.825005,-8.45625,146.01134,-28.351772,-1.1147383,0.1677422,0.17866601,0.6824428,0.6886311,984.39496
1747655980862,-0.65084773,4.6205406,9.217153,-0.055588696,0.039858926,-0.01809687,8.681251,-66.881256,-8.4375,146.0377,-28.213829,-1.151779,0.16540135,0.17800131,0.6826588,0.6891552,984.39496
1747655980883,-0.66999036,4.5415773,9.0544405,0.017715078,0.035582874,0.053985175,8.625,-66.3,-8.137501,146.15855,-27.898956,-1.6099603,0.16234422,0.17869446,0.6826745,0.689687,984.38715
1747655980904,-0.4761717,4.5248275,9.035298,0.055588696,0.0490219,0.09613484,8.90625,-66.05625,-8.08125,146.12315,-27.783688,-1.864586,0.16012637,0.1795464,0.68319786,0.689466,984.38715
1747655980925,-0.27996024,4.7425747,8.752945,0.10995566,-0.0151189035,0.08575014,9.056251,-65.793755,-7.65,146.0276,-27.806417,-1.8954802,0.15993123,0.17999898,0.6837797,0.6888162,984.394
1747655980947,-0.18903299,4.95075,8.193025,0.06902772,-0.005345067,0.0570395,9.356251,-65.925,-7.6875005,145.91992,-28.014137,-1.8203727,0.16148776,0.18091048,0.6839583,0.6880364,984.394
1747655980967,-0.32542387,4.955536,8.279166,-0.06597339,0.09483676,0.043600474,9.168751,-65.9625,-7.7812505,145.81729,-28.267344,-1.785201,0.16329435,0.1826345,0.6839928,0.68711966,984.39545
1747655980989,-0.09810573,4.8598228,8.788837,-0.10506874,0.066126116,0.07047852,9.150001,-65.83125,-7.70625,145.72684,-28.365984,-1.8789408,0.16291484,0.18363571,0.68439436,0.6865428,984.39545
1747655981011,0.2943172,4.6468616,9.425328,0.0048869182,-0.06887501,0.036880963,9.243751,-66.037506,-7.8562503,145.61578,-28.30741,-1.8225212,0.16328883,0.1818893,0.6853293,0.685986,984.3942
1747655981033,-0.0071784677,4.6372905,8.762517,0.091018856,-0.061544627,0.057650365,8.925,-65.981255,-7.18125,145.4979,-28.217459,-1.3340782,0.16487364,0.17987883,0.6858261,0.6856404,984.3984
1747655981054,0.18664017,4.7282176,8.315059,0.045814857,-0.02489274,0.05948296,9.075001,-65.86875,-7.5375004,145.3982,-28.313524,-1.1623621,0.16628306,0.17960462,0.6861881,0.6850094,984.3984
1747655981078,0.0047856453,4.766503,8.032705,-0.043982264,-0.051159926,0.03199404,9.0375,-65.850006,-7.4625,145.30403,-28.414703,-0.99305415,0.16801459,0.1792895,0.6864822,0.6843746,984.3984
1747655981099,-0.08853444,4.6229334,8.2145605,-0.14416409,-0.027947064,0.023441937,8.71875,-66.01875,-7.55625,145.2421,-28.439072,-0.87569666,0.16848044,0.17868894,0.68665826,0.6842405,984.3984
1747655981120,-0.16271193,4.465007,8.762517,-0.15699224,0.0013744457,0.06253728,8.6625,-66.01875,-7.70625,145.1985,-28.305975,-0.827554,0.16758396,0.17755195,0.687127,0.684286,984.39594
1747655981143,0.2416751,4.5535417,9.142975,-0.04214967,-0.03161225,0.092469655,8.400001,-66.39375,-7.4812503,145.07545,-28.005323,-0.7511939,0.16635098,0.17582181,0.6881531,0.68400246,984.39594
1747655981164,0.27517462,4.7114677,8.425129,-0.0061086477,-0.037110034,0.03810269,8.306251,-66.3,-8.1,144.94884,-27.941977,-0.5149012,0.16712563,0.17428589,0.68894124,0.683413,984.39154
1747655981185,0.03589234,4.699504,8.195417,-0.07819069,-0.0029016077,-0.0064904382,8.08125,-66.412506,-8.0625,144.90349,-27.96605,-0.41253868,0.16780417,0.17389767,0.68907344,0.6832124,984.39154
1747655981205,-0.2321038,4.6492543,8.492127,-0.11423171,0.019089524,-0.027259842,8.56875,-66.28125,-8.34375,144.91328,-27.911331,-0.4310555,0.16739728,0.1736494,0.6890578,0.68339103,984.383
1747655981227,-0.41874397,4.6037908,8.420342,-0.14110976,0.07284562,-0.016264275,8.3625,-65.981255,-8.306251,144.94539,-27.810747,-0.53751767,0.16623771,0.1736023,0.6890379,0.6837061,984.383
1747655981249,-0.52163535,4.505685,8.796016,-0.22785257,0.17486005,0.022220206,8.137501,-66.1125,-7.6687503,144.95537,-27.651367,-0.7392966,0.16343412,0.17379934,0.68945086,0.6839156,984.3864
1747655981271,-0.38285163,4.5296135,9.47797,-0.16432263,0.15347977,0.09796744,8.231251,-66.262505,-7.425,144.92737,-27.394005,-0.9954272,0.159542,0.1736853,0.6905959,0.6837083,984.3864
1747655981292,0.17467605,4.6492543,9.377472,-0.047647454,-0.02611447,0.118125975,8.137501,-66.09375,-7.4437504,144.82387,-27.156656,-1.1614811,0.15821996,0.17328966,0.6914681,0.6832343,984.3869
1747655981315,0.46660042,4.6803613,9.131011,0.028710645,-0.108581215,0.077198036,7.9875,-66.075005,-7.4062505,144.64236,-27.065079,-0.9626418,0.15965384,0.17136478,0.69256884,0.6822706,984.38983
1747655981337,0.5479564,4.7306104,8.819944,-0.0067195124,-0.0029016077,0.008170316,7.9500003,-66.1125,-7.5000005,144.5002,-27.12835,-0.5491989,0.16169272,0.17003244,0.6928878,0.68179977,984.38983
1747655981359,0.40677986,4.7210393,8.640483,-0.0971275,0.16019928,-0.029092435,7.7625003,-66.1125,-7.9500003,144.46417,-27.143599,-0.44621834,0.16189136,0.16982692,0.6931027,0.68158543,984.38934
1747655981381,0.18664017,4.6803613,8.88455,-0.14844014,0.20112723,-0.06146827,7.8,-66.09375,-7.7625003,144.46944,-27.073448,-0.5590469,0.16045578,0.17014992,0.69337946,0.6815628,984.38934
1747655981402,0.083748795,4.536792,9.245867,-0.077579826,0.08567379,-0.074907295,8.1,-66.39375,-7.6125,144.55621,-26.876043,-0.81632316,0.15829037,0.17028241,0.6934679,0.681946,984.38495
1747655981426,0.1052842,4.4195433,9.097511,0.011606431,-0.046883874,-0.07735075,8.175,-66.28125,-7.65,144.6477,-26.800621,-0.8375168,0.1578738,0.1697129,0.6930362,0.6826231,984.38495
1747655981448,0.148355,4.2520456,9.21476,0.041538805,-0.038331766,-0.04619665,8.38125,-66.318756,-7.14375,144.75493,-26.774988,-0.7694816,0.1582043,0.16917555,0.6926014,0.683121,984.3808
1747655981470,0.2440679,4.304688,8.977871,0.08857539,-0.030390523,-0.033368487,8.26875,-66.3375,-7.4812503,144.8082,-26.77503,-0.70027685,0.15866104,0.16872731,0.6923509,0.6833798,984.3808
1747655981492,0.27517462,4.462614,8.7577305,0.09040799,-0.016951498,-0.053527027,8.00625,-66.506256,-7.51875,144.848,-26.843102,-0.607761,0.15990989,0.16858423,0.6919558,0.6835242,984.3859
1747655981515,0.2632105,4.725825,8.539984,0.05986475,0.04780017,-0.109726585,8.212501,-66.3,-7.3875003,144.90631,-26.948751,-0.5486783,0.16093197,0.16893342,0.69143206,0.68372804,984.3859
1747655981538,-0.46899325,4.7880383,8.087741,-0.05986475,0.07589995,-0.13355032,8.53125,-66.3,-7.425,145.08844,-27.12541,-0.67376626,0.16116336,0.17071153,0.6901386,0.6845383,984.3879
1747655981559,-0.59342,4.6061835,8.662018,-0.10262528,0.037415467,-0.08468113,8.53125,-66.24375,-7.2000003,145.23645,-27.161976,-0.8939542,0.16012223,0.17179719,0.6893226,0.6853327,984.38275
1747655981579,-0.31106696,4.4841495,8.882157,-0.045814857,0.026419902,-0.05169443,8.700001,-66.131256,-7.5000005,145.34521,-27.087254,-1.0736611,0.15863813,0.17202854,0.68886054,0.6860841,984.38275
1747655981601,-0.30388847,4.536792,8.432307,-0.031154104,-0.019394957,-0.03092503,8.325001,-66.15,-7.425,145.42743,-27.014444,-1.1821958,0.15819183,0.17211664,0.68867314,0.6863531,984.3886
1747655981622,0.014356935,4.5726843,8.477771,-0.068416856,-0.11713332,-0.049861837,8.3625,-65.943756,-7.5375004,145.4816,-27.001143,-1.0760807,0.15883808,0.17131928,0.68818945,0.6868882,984.3886
1747655981643,-0.0741775,4.5391846,8.518449,-0.115453444,-0.020616686,-0.049861837,8.625,-65.606255,-7.8,145.53546,-26.943676,-0.98189425,0.15913098,0.17034255,0.6878428,0.6874104,984.38544
1747655981666,-0.023928227,4.5320063,8.760123,-0.1423315,0.083230324,-0.023594651,9.075001,-65.662506,-7.8187504,145.57072,-26.828573,-1.0150149,0.15829444,0.1698012,0.6878218,0.6877584,984.38544
1747655981689,0.2105684,4.642076,8.874979,-0.09407318,0.04963276,-0.043142326,9.056251,-65.55,-8.3625,145.5817,-26.7032,-1.0679108,0.15708858,0.16922678,0.6880635,0.68793464,984.3796
1747655981710,-0.15553348,4.7306104,8.597412,-0.07391464,0.020922119,-0.040698867,9.1875,-65.49375,-7.9687505,145.61134,-26.636913,-1.0684701,0.15678895,0.16892187,0.68796855,0.6881728,984.3796
1747655981731,-0.23928227,4.8263235,8.425129,-0.09040799,0.014202606,0.019165883,8.925,-65.2125,-8.025001,145.63957,-26.623129,-1.1047488,0.15648288,0.16914946,0.6878497,0.6883055,984.37274
1747655981751,-0.09571291,4.814359,8.882157,-0.082466744,-0.004123337,0.06620247,8.775001,-65.043755,-7.7625003,145.58603,-26.622837,-1.1266395,0.15645194,0.16914044,0.6881206,0.68804383,984.37274
1747655981773,0.1052842,4.910072,8.987442,-0.021380268,-0.024281874,0.1211803,8.587501,-65.043755,-7.51875,145.4846,-26.612259,-1.0720572,0.1566855,0.16887169,0.6886835,0.68749326,984.3808
1747655981796,0.8662018,5.0009995,8.877372,0.042760536,-0.07620538,0.08086322,8.175,-65.287506,-7.7250004,145.23215,-26.722761,-0.77983284,0.15858786,0.16821069,0.68960744,0.686292,984.3791
1747655981815,0.4833502,4.9698925,8.386844,0.043982264,0.014813471,0.02649626,8.306251,-65.30625,-7.93125,145.10977,-26.873802,-0.47732776,0.16155496,0.16754118,0.69000196,0.6853666,984.3791
1747655981836,-0.05503492,4.8622155,7.877172,-0.0537561,0.15897755,0.0778089,8.681251,-65.231255,-8.08125,145.02574,-27.025072,-0.39485946,0.16233717,0.16838697,0.69030905,0.6846648,984.3913
1747655981856,0.19860429,4.855037,7.891529,-0.20769402,0.2780962,0.14744748,9.01875,-65.137505,-8.325001,144.87064,-27.077839,-0.53242326,0.16123179,0.1696491,0.69140947,0.6835031,984.3913
1747655981877,0.6652047,4.962714,8.441878,-0.2828304,0.2988656,0.116293386,9.50625,-65.100006,-8.3625,144.57983,-26.926996,-0.74057317,0.15908138,0.17011236,0.6931776,0.6820995,984.38837
1747655981897,0.4211368,5.048856,9.102298,-0.19975278,0.15714496,0.03810269,10.06875,-65.025,-8.418751,144.40276,-26.74593,-0.7963458,0.15711921,0.16943876,0.6949216,0.6809464,984.38837
1747655981918,-0.69152576,5.218746,8.860622,-0.043371398,0.026419902,0.099800035,9.918751,-65.193756,-8.53125,144.31648,-26.667322,-0.8081852,0.156641,0.16953011,0.6954525,0.68049175,984.38544
1747655981938,-0.59581286,5.558527,8.592627,0.076358095,-0.051159926,0.27817255,9.88125,-65.2125,-8.75625,144.14453,-26.785166,-0.86895853,0.15714876,0.1710046,0.69618446,0.67925614,984.38544
1747655981959,0.1052842,5.8217373,8.372486,0.13500112,0.020311253,0.30382887,10.087501,-65.08125,-8.71875,143.77048,-27.087393,-0.76326376,0.15956323,0.1726341,0.6975736,0.67685163,984.38446
1747655981980,-0.22971097,5.910272,7.8436728,0.13744457,0.1669188,0.21952952,10.012501,-65.26875,-8.94375,143.34988,-27.500713,-0.6038904,0.16226786,0.17506522,0.6989177,0.6741924,984.38446
1747655982001,-0.73459655,6.113662,7.2765737,0.12583815,0.1913534,0.16210824,10.3125,-65.34375,-8.868751,143.01393,-27.962072,-0.6956779,0.16401303,0.18037647,0.69991314,0.6713312,984.38544
1747655982022,-1.0313065,6.0729837,6.991828,0.023823727,0.003817905,0.15355614,10.012501,-65.981255,-8.25,142.62447,-28.693598,-1.0457529,0.16528946,0.18480408,0.7001668,0.669547,984.38544
1747655982044,-0.10767702,5.6350975,7.6259255,-0.13255766,-0.29489496,0.112017326,9.28125,-66.1125,-7.6687503,142.37862,-28.834791,-0.85923344,0.16694862,0.1848524,0.70080096,0.6684578,984.382
1747655982065,0.58624154,5.4173503,9.233903,-0.2150244,-0.38041604,-0.01687514,9.150001,-66.037506,-7.7812505,142.30417,-28.718267,-0.40407905,0.1689148,0.18160996,0.7008069,0.66884625,984.382
1747655982086,0.4211368,5.285745,10.097712,-0.15027274,-0.057268575,-0.11217005,9.01875,-65.90625,-7.9875,142.38858,-28.507236,-0.07072447,0.16978958,0.1789106,0.70045674,0.66971856,984.3891
1747655982107,-0.22013968,5.2977095,9.5353985,-0.023823727,0.16508621,-0.076739885,9.0375,-65.662506,-8.45625,142.51498,-28.369452,-0.16456595,0.16861992,0.17781486,0.69993657,0.6708487,984.3891
1747655982128,0.15314065,5.2426744,8.3174515,0.050090913,-0.07315106,-0.1146135,9.431251,-65.53125,-9.09375,142.59766,-28.393063,-0.37196854,0.16771543,0.17922767,0.6994512,0.6712056,984.40765
1747655982149,-0.28713873,5.0009995,8.350951,0.02932151,-0.1763872,-0.13110685,9.4125,-65.793755,-9.1125,142.73265,-28.488667,-0.33638084,0.16900855,0.17906913,0.69827884,0.67214364,984.40765
1747655982170,-0.4331009,4.955536,8.413164,0.07880156,0.008093959,-0.055970486,9.637501,-65.55,-9.0375,142.90448,-28.57878,-0.268178,0.1698765,0.17907168,0.69728434,0.67295605,984.41864
1747655982192,-0.39960137,4.900501,7.685746,0.09957096,0.12660173,-0.0297033,9.9375,-65.662506,-8.775001,142.9579,-28.703106,-0.3939866,0.16990541,0.18094882,0.6967743,0.67297494,984.41864
1747655982214,-0.11964113,4.898108,7.960921,0.08613193,-4.581486E-4,-0.087124586,9.95625,-65.55,-8.38125,143.02426,-28.920773,-0.6170375,0.17004399,0.18293658,0.69625026,0.6729449,984.4179
1747655982236,-0.55752766,5.056034,8.676374,0.18142684,0.011148282,-0.108504854,10.05,-65.68125,-8.56875,143.14754,-29.067995,-0.6764197,0.17076649,0.18397659,0.69532156,0.6734384,984.4003
1747655982257,-1.2442678,5.386244,8.248059,0.3262018,0.10216714,0.02527453,9.993751,-65.55,-8.64375,143.25563,-29.33653,-0.8287903,0.17190708,0.18713836,0.69420224,0.6734318,984.4003
1747655982278,-0.5407779,5.7020965,7.7742805,0.365908,0.04046979,0.10346522,9.84375,-65.775,-8.56875,143.20152,-29.753353,-0.9833923,0.17374082,0.1905442,0.6939951,0.6722186,984.37885
1747655982299,-0.5623133,6.3361945,7.3363943,0.3536907,-0.08659008,0.027717989,10.181251,-65.71875,-8.512501,143.0798,-30.245115,-0.9580532,0.17690721,0.19335796,0.6936057,0.67099005,984.37885
1747655982320,-1.7706888,6.826723,7.338787,0.26633704,-0.012675445,0.072921984,9.975,-65.850006,-7.9687505,143.01709,-30.85858,-0.8958357,0.17999025,0.19605614,0.6927808,0.6702389,984.3664
1747655982344,-1.1988041,7.288538,7.487142,0.077579826,-0.02367101,0.18898629,10.33125,-65.83125,-7.6312504,142.74928,-31.411423,-0.961398,0.18255897,0.20002206,0.692923,0.66822237,984.3664
1747655982366,-0.7680961,7.3172517,8.961121,-0.05070178,-0.21914774,0.14989094,10.5,-66.01875,-7.4437504,142.51985,-31.575634,-0.8011646,0.18416247,0.20037714,0.6934847,0.6670923,984.3476
1747655982388,-0.44985065,7.3986077,10.061819,-0.04703659,-0.2319759,0.0881936,10.5375,-66.225006,-7.2375,142.35368,-31.610785,-0.49209657,0.18640956,0.19866376,0.69384617,0.6666046,984.3476
1747655982411,-0.7896315,7.4153576,10.564312,-0.022601997,-0.1122464,0.08025236,10.51875,-66.262505,-7.3875003,142.25803,-31.627314,-0.23119454,0.18797208,0.19743058,0.6939184,0.66645694,984.34686
1747655982432,-0.6843473,7.355537,10.832308,0.021991132,-0.09636392,0.1211803,10.5,-66.43125,-7.2375,142.16737,-31.653955,-0.0962324,0.18874547,0.19716479,0.6942028,0.66602075,984.34686
1747655982454,-0.40917268,7.094719,11.040483,0.116675176,-0.17211115,0.15722132,10.462501,-66.262505,-7.36875,142.03003,-31.716543,0.03729906,0.1901468,0.19692333,0.6946222,0.6652559,984.363
1747655982477,-0.076570325,6.556334,10.770095,0.29932374,-0.23747368,0.23113596,10.837501,-66.24375,-7.33125,141.67418,-32.044846,0.5589268,0.19372658,0.19665623,0.69513917,0.6637604,984.382
1747655982498,0.83748794,6.0251274,8.999406,0.37323838,-0.3755291,0.19876012,10.6875,-66.450005,-7.4437504,141.39114,-32.42653,1.0234381,0.19953696,0.19680518,0.6955067,0.66160655,984.382
1747655982519,1.6079768,5.206782,8.288737,0.13561198,-0.37064222,0.015500694,10.743751,-66.4875,-7.89375,141.18336,-32.808743,1.6334375,0.20483649,0.19568036,0.6950861,0.6607621,984.3991
1747655982541,1.0839486,4.287938,8.437093,-0.07513637,0.015424335,-0.15920663,10.63125,-66.99375,-7.70625,141.18602,-32.935722,2.1000469,0.20726411,0.19397958,0.6943037,0.66132885,984.3991
1747655982563,0.083748795,3.546163,8.810373,-0.10995566,0.32330018,-0.1598175,10.70625,-66.99375,-8.53125,141.38333,-32.801357,2.0034018,0.20521714,0.19383986,0.69384354,0.66249007,984.39984
1747655982585,-0.062213387,3.1657043,8.592627,0.03970621,0.18157956,-0.10483967,11.08125,-66.9,-8.34375,141.67133,-32.51773,1.33559,0.20089127,0.19530667,0.69385195,0.6633758,984.39984
1747655982607,-0.31585258,2.9766715,8.130812,0.21441354,-0.14278965,-0.040088,11.00625,-67.125,-8.2875,141.83626,-32.535137,1.1656067,0.2002178,0.19613563,0.6932522,0.6639616,984.38715
1747655982628,-0.50488555,3.07717,7.3770723,0.27366742,-0.30527967,0.102854356,11.025001,-67.162506,-8.231251,141.86205,-32.712734,1.3921626,0.20259942,0.19591399,0.6925622,0.6640247,984.38715
1747655982649,0.715454,3.574877,6.5252275,0.16249003,-0.38163778,0.19876012,11.3625,-67.21875,-8.212501,141.70049,-32.92183,1.8526404,0.20721833,0.1944354,0.69260603,0.6629875,984.36957
1747655982671,1.5672989,3.8763726,6.506085,-0.12522727,-0.41340274,0.077198036,11.137501,-67.6875,-8.1,141.49469,-33.01299,2.4539895,0.21069562,0.19155034,0.69285357,0.6624725,984.36957
1747655982693,1.5625132,4.0414777,7.5589266,-0.38912088,-0.15378521,-0.100563616,11.137501,-67.78125,-8.118751,141.4351,-32.835587,3.0173516,0.21203893,0.18614155,0.69275844,0.6636841,984.33563
1747655982715,0.37328035,4.261617,8.449057,-0.38728827,0.24266604,-0.15493058,10.931251,-67.537506,-8.137501,141.67044,-32.147465,3.1017952,0.20905216,0.1832394,0.692805,0.6653884,984.31537
1747655982738,-0.12921242,4.5966125,8.169097,-0.16371176,0.24755295,-0.037033677,11.137501,-67.21875,-8.137501,141.85849,-31.671106,2.5656064,0.20344196,0.18302979,0.69335663,0.66660935,984.31537
1747655982760,0.58624154,4.924429,8.018349,0.020158539,-0.07742711,-0.0077121677,11.08125,-66.76875,-8.25,141.88654,-31.533386,2.3442807,0.20140183,0.18333195,0.69371986,0.66676795,984.30756
1747655982781,1.0001999,5.1182475,7.668997,0.13133593,-0.15012002,-0.04864011,11.118751,-66.600006,-8.45625,141.9071,-31.584772,2.4686687,0.20295432,0.1828964,0.69318384,0.66697425,984.30756
1747655982802,1.0193424,5.3503513,6.893722,0.12522727,0.06307179,-0.0956767,11.38125,-66.95625,-8.34375,141.9675,-31.754482,2.6077528,0.2046315,0.18338595,0.69236666,0.6671761,984.30194
1747655982826,0.86859465,5.65424,6.908079,0.055588696,0.08933897,-0.106672265,11.6625,-67.162506,-7.7812505,142.1139,-32.003662,2.4343297,0.20496553,0.18537714,0.6915013,0.66742074,984.30194
1747655982847,1.6342978,5.9653068,7.8149586,0.16432263,-0.1262963,-0.100563616,11.83125,-67.33125,-7.7250004,142.21379,-32.144627,2.3726766,0.20605323,0.18652433,0.6904784,0.6678251,984.3005
1747655982868,2.2492533,5.9700923,8.059027,0.33841908,-0.18127412,-0.18547381,11.7375,-67.162506,-7.6875005,142.33395,-32.41063,2.543798,0.20921168,0.18706918,0.68890524,0.6683152,984.3005
1747655982890,1.7252251,5.8217373,7.4416785,0.4092794,0.0044287695,-0.3125337,11.981251,-67.106255,-8.0625,142.64586,-32.977108,2.6945796,0.21288903,0.18893903,0.6864758,0.6691273,984.2961
1747655982913,-0.023928227,6.0777693,7.568498,0.34391686,0.20418155,-0.22823435,11.775001,-67.125,-8.587501,143.142,-33.691536,2.267511,0.21531858,0.19479638,0.682891,0.6703374,984.2966
1747655982936,-0.19621146,6.4055862,8.068598,0.46425724,0.09117157,-0.025427246,11.868751,-67.21875,-8.118751,143.27933,-34.156303,1.9567604,0.21644783,0.19909067,0.68158287,0.67004335,984.2966
1747655982957,0.13878371,6.570691,7.678568,0.52839804,-0.19471315,0.08269582,12.093751,-67.425,-8.15625,143.2448,-34.747017,1.9309504,0.22084297,0.20353448,0.6803801,0.6684946,984.3039
1747655982979,0.6867401,6.6305118,8.224132,0.38973173,-0.28206682,0.049709123,12.1125,-67.481255,-7.93125,143.13766,-35.351433,2.2546022,0.226147,0.2050655,0.679285,0.6673662,984.3039
1747655983000,0.67477596,6.558727,8.949157,0.20769402,-0.092087865,-0.04130973,11.75625,-68.15625,-7.89375,143.08353,-35.797737,2.61917,0.23076361,0.20592979,0.67800844,0.6668175,984.3117
1747655983022,0.5455636,6.439086,9.284152,0.015882485,-0.029779658,-0.11033745,11.55,-68.71875,-7.89375,143.12628,-36.0447,2.7365892,0.2318603,0.20653135,0.67719644,0.6670761,984.3117
1747655983044,-0.44745782,6.3960147,10.557134,-0.13805544,0.2206749,-0.13782637,11.2875,-69.225006,-7.425,143.405,-35.963165,2.4987354,0.23020044,0.20662817,0.6765187,0.6683076,984.32074
1747655983066,-1.2035898,6.73101,10.124033,-0.17592905,0.34712392,-0.06330086,11.45625,-69.356255,-6.7875004,143.54022,-35.76474,1.99718,0.22644563,0.20798315,0.67679447,0.6688906,984.32074
1747655983087,-1.0241281,6.15434,10.04507,-0.37140578,0.1962403,-0.052305296,11.775001,-69.318756,-6.675,143.60529,-35.479816,1.5353292,0.22230192,0.20872955,0.6775216,0.6693118,984.34296
1747655983109,-0.8781659,5.127819,11.215159,-0.46547896,0.1357647,-0.06940951,12.168751,-69.0,-6.675,143.70229,-34.972164,1.2275295,0.21778233,0.20724282,0.67831314,0.67045695,984.34296
1747655983130,-1.2251252,4.1467614,12.177074,-0.23212862,0.3281871,-0.00160352,12.0375,-68.925,-6.4125004,143.81067,-34.38709,0.90894973,0.21145245,0.20525429,0.67957807,0.67181265,984.36395
1747655983152,-1.1700903,4.237689,9.80818,0.06352994,0.33307403,0.052763447,11.71875,-68.887505,-6.43125,143.81679,-34.04433,0.451071,0.20638683,0.20701748,0.68117034,0.67123413,984.36395
1747655983174,-0.9212367,4.493721,8.1020975,0.07574723,0.10827578,0.049098257,11.94375,-68.90625,-6.675,143.75887,-33.993813,0.053723726,0.20480874,0.20881563,0.6818675,0.67045224,984.3896
1747655983196,-0.90448695,4.4745784,6.5515485,-0.16859868,0.01847866,0.018555017,11.962501,-69.4875,-6.9187503,143.69508,-33.994915,-0.13790046,0.20413125,0.20925592,0.68216103,0.6702229,984.38666
1747655983218,-0.37806597,4.130012,7.082755,-0.43676832,0.16630794,0.049709123,11.962501,-69.76875,-6.5625005,143.6623,-33.71412,-0.21689843,0.20108496,0.20762028,0.6832413,0.670552,984.38666
1747655983240,-0.16031912,3.6586258,8.224132,-0.4196641,0.34162614,0.08575014,11.925,-70.125,-6.6375003,143.58159,-33.198467,-0.41452384,0.19638263,0.20594385,0.6850754,0.6705913,984.36957
1747655983263,0.0071784677,3.5174494,8.300702,-0.040317077,0.25793764,0.19142975,11.681251,-70.481255,-6.3,143.32828,-32.60468,-0.8498619,0.19113122,0.2056964,0.6877616,0.66943395,984.36957
1747655983286,0.5096712,3.8524444,6.7908306,0.35307986,-0.20021093,0.24518585,11.45625,-70.51875,-6.3187504,143.05255,-32.680508,-0.8070514,0.19211951,0.20651218,0.68947935,0.667129,984.3649
1747655983307,1.0767702,4.211368,5.3359947,0.3903426,-0.49403688,0.1834885,11.493751,-70.3125,-6.4875,142.77249,-33.078587,-0.31475314,0.19759406,0.20627539,0.68956107,0.6655168,984.3649
1747655983329,1.1270195,4.4913282,5.2666025,0.171653,-0.44761115,0.036880963,11.512501,-70.425,-6.43125,142.56982,-33.57782,0.593624,0.20514677,0.20420948,0.6885434,0.66492206,984.35785
1747655983350,0.25603202,4.6636114,6.721439,0.074525505,-0.22525638,-0.00160352,11.306251,-70.40625,-6.7125,142.55371,-33.76917,1.113281,0.20860946,0.20260173,0.68767035,0.6652398,984.35785
1747655983371,-0.019142581,4.941179,7.4656067,0.22846343,-0.17027856,0.055817768,10.950001,-70.96875,-6.6000004,142.5586,-33.877983,1.3758876,0.21070725,0.20210488,0.6871639,0.6652532,984.3422
1747655983394,0.15792629,5.5226345,6.8721867,0.32559094,-0.27107126,0.0692568,10.6125,-71.11875,-6.3187504,142.49939,-34.138973,1.6074487,0.21383308,0.20264602,0.6866298,0.6646425,984.3422
1747655983416,0.3182454,5.9007006,6.920043,0.16920954,-0.2319759,-0.05413789,10.03125,-71.568756,-6.2625003,142.43465,-34.672596,2.1371434,0.21975107,0.20281471,0.68505424,0.6642864,984.33636
1747655983438,-0.26081768,6.02752,7.7312098,-0.010995566,-0.018173227,-0.07857248,9.806251,-71.887505,-6.15,142.52063,-34.864395,2.3146946,0.22141777,0.20285341,0.6839881,0.6648195,984.3266
1747655983465,-0.701097,6.099305,9.432507,-0.09590577,0.064904384,-0.007101303,9.5625,-72.39375,-6.15,142.65971,-34.79203,2.1092758,0.21991624,0.20322601,0.6837071,0.6654928,984.3266
1747655983485,-0.5312066,6.3122663,9.470792,-0.04214967,-0.3339903,0.05093085,9.431251,-72.4875,-6.2625003,142.65134,-34.70012,2.157701,0.21967337,0.20239475,0.68381095,0.6657196,984.3266
1747655983506,-0.18903299,6.7645097,9.075976,-0.07513637,-0.68890274,0.05337431,9.375,-72.58125,-6.2250004,142.6411,-34.653988,2.7295625,0.22273685,0.19888303,0.68307376,0.6665164,984.3266
1747655983597,2.3138595,5.316852,12.990634,-0.9957096,0.052687086,-0.021151192,8.625,-72.3,-7.70625,142.27457,-31.981077,3.4898117,0.20968804,0.17701001,0.68937474,0.67041844,984.3896
1747655983617,1.9094725,4.575077,14.883357,-0.44959646,0.19746204,-0.10728313,8.418751,-71.943756,-7.65,142.41942,-30.660423,3.3374343,0.20308937,0.17141119,0.69082016,0.67241395,984.3896
1747655983637,1.2251252,4.278367,13.907085,0.14905101,0.031306818,-0.06696605,8.38125,-71.90625,-8.00625,142.56332,-30.269299,3.1220782,0.19971332,0.17006662,0.69118935,0.67338634,984.4213
1747655983659,1.6223338,4.065406,10.394422,0.6023127,-0.38957903,-0.058413945,8.3625,-71.7375,-7.9125004,142.63693,-30.564413,3.276783,0.20381187,0.17115635,0.6897755,0.67333204,984.4213
1747655983681,1.7802601,3.9984066,7.7551384,0.5552761,-0.36086836,-0.10178535,8.38125,-71.4,-7.9687505,142.71986,-31.171185,3.7372127,0.21029623,0.17216778,0.6876027,0.67330253,984.41376
1747655983703,2.251646,3.859623,5.7786665,0.103236146,-0.1348484,-0.15248711,8.90625,-71.793755,-8.137501,142.91249,-31.897217,4.2628536,0.21619447,0.17301914,0.685135,0.6737317,984.41376
1747655983724,2.3641088,3.6370904,6.3888364,-0.194255,0.08933897,-0.25633413,8.83125,-71.793755,-7.9125004,143.0052,-31.948046,4.3134975,0.21654266,0.17257144,0.68392885,0.6749591,984.3903
1747655983745,1.2466606,3.4863427,7.422536,-0.17959425,0.2640463,-0.3491856,8.625,-71.9625,-8.118751,143.6142,-31.590322,3.8081448,0.21275477,0.17253429,0.6824833,0.6776311,984.3903
1747655983767,0.66041905,3.6179478,6.795616,0.037873615,0.19379686,-0.33391395,8.64375,-72.037506,-8.19375,144.03679,-31.479847,3.3158014,0.20985343,0.17396393,0.68097264,0.679687,984.3757
1747655983788,0.37088752,3.8620157,5.9916277,0.11728604,0.09483676,-0.3180315,8.1,-71.90625,-7.9687505,144.43382,-31.567926,2.9306357,0.20871657,0.17602411,0.67904836,0.68142956,984.3757
1747655983811,0.09092726,4.2185464,5.4173503,0.06352994,0.06918044,-0.24656029,8.0625,-71.49375,-7.8750005,144.7987,-31.724884,2.65829,0.20859753,0.1783039,0.67651236,0.6833929,984.35126
1747655983835,0.44027936,4.4578285,5.8911295,-0.112399116,0.20784675,-0.1995237,8.325001,-71.137505,-7.4812503,145.21524,-31.810883,2.2511055,0.2074284,0.18001403,0.67486477,0.68492764,984.3371
1747655983857,0.3493521,4.4602213,6.8865438,-0.13927718,0.33735007,-0.18852814,8.7375,-70.668755,-7.33125,145.4414,-31.693779,1.84361,0.20391032,0.18169498,0.6741815,0.6862118,984.3371
1747655983878,-0.22013968,4.644469,7.4392858,0.0097738365,0.26526803,-0.13355032,9.13125,-70.537506,-7.3125005,145.6485,-31.577307,1.3483218,0.20088015,0.18368106,0.6738164,0.6869351,984.3295
1747655983899,-0.36370903,4.8789654,7.704889,0.15821397,0.091782436,-0.015042545,9.450001,-70.59375,-7.1062503,145.80394,-31.633642,0.9169578,0.19962038,0.18573281,0.67344284,0.68711704,984.3295
1747655983921,-0.05742774,5.0249276,7.32443,0.22113305,0.015424335,0.042989608,9.543751,-70.55625,-6.76875,145.7842,-31.855186,0.85137475,0.20094153,0.18784261,0.67320603,0.68639004,984.3322
1747655983944,-0.9762716,5.326423,7.893922,-0.02443459,0.27687445,0.13645191,9.712501,-70.78125,-6.525,145.65714,-32.10769,0.73138905,0.20115836,0.18985398,0.6736752,0.685312,984.3322
1747655983966,-0.17706887,5.831309,10.157532,-0.08307761,0.27259842,0.3013854,9.637501,-70.96875,-6.39375,145.37015,-32.022957,0.4885779,0.19879206,0.19125709,0.6757969,0.68352103,984.3322
1747655983987,0.66759753,6.352944,11.722438,0.2828304,-0.13057235,0.31299183,9.28125,-71.006256,-6.6000004,144.96092,-32.00269,0.50201863,0.19859938,0.191831,0.6787046,0.68052864,984.3322
1747655984009,1.3375878,6.719046,10.566705,0.4667007,-0.5575668,0.17066035,9.0375,-70.950005,-6.6375003,144.60434,-32.344517,0.97945863,0.20395422,0.19147018,0.67914623,0.6786032,984.3498
1747655984030,0.6771688,6.9009004,10.236495,0.1423315,-0.35353798,0.003894263,8.925,-70.912506,-6.7875004,144.43018,-32.821068,1.7377226,0.21159951,0.18966794,0.677854,0.67806023,984.3498
1747655984051,0.20817557,6.6329045,10.540383,-0.2913825,0.013591741,0.028939718,8.45625,-71.100006,-6.8625,144.42812,-32.979065,2.2265663,0.21262632,0.18816963,0.6775949,0.6784154,984.36127
1747655984073,0.73459655,5.802595,12.976277,-0.5931497,0.32879797,-0.050472703,8.325001,-71.26875,-7.1062503,144.4185,-32.23394,1.9950018,0.2071548,0.18548477,0.67923313,0.67920893,984.38837
1747655984096,-0.2440679,4.7377887,13.540983,-0.3781253,0.49067715,-0.22518003,8.418751,-71.2125,-7.2562504,144.57677,-31.556864,1.4699872,0.20034993,0.18422686,0.6803065,0.6805171,984.38837
1747655984116,-1.7922242,4.5678983,11.643475,-0.06536253,0.3978257,-0.17692171,8.71875,-71.4,-7.275,144.85158,-31.167759,0.74428827,0.1942436,0.18568173,0.6803773,0.6818199,984.4018
1747655984137,-1.7778672,4.0558343,9.497113,0.0012217296,0.05329795,-0.029092435,9.13125,-70.950005,-7.2375,145.02602,-31.073277,0.2518752,0.19075103,0.18791611,0.6800712,0.68249893,984.4018
1747655984159,-1.0624132,3.6849468,8.441878,-0.11178826,-0.054825112,0.07903063,9.0375,-71.15625,-7.05,145.05878,-31.013498,0.1530725,0.19011106,0.18763365,0.6801956,0.6826311,984.3962
1747655984181,-0.11006984,3.2949169,8.346166,-0.19364414,-0.013897174,0.116293386,9.150001,-70.912506,-6.7875004,144.97916,-30.845243,0.22033156,0.18890004,0.18570022,0.681286,0.68240875,984.3962
1747655984205,0.18185452,3.129812,8.2456665,0.005497783,0.117438756,0.14622575,8.94375,-70.51875,-6.61875,144.7349,-30.478712,0.3165938,0.1874672,0.18426552,0.6827687,0.6817104,984.3896
1747655984225,0.29192436,3.251846,6.762117,0.31093016,0.17302746,0.20059273,9.1875,-70.275,-6.4500003,144.51953,-30.578089,0.26340994,0.18738012,0.18553956,0.68401676,0.68013597,984.3896
1747655984246,0.4211368,3.5246277,4.6875396,0.4331031,-0.039553493,0.19448407,9.262501,-70.0875,-6.6375003,144.25378,-30.967976,0.2621794,0.190041,0.18898195,0.6851209,0.6773327,984.3659
1747655984269,0.29192436,3.6203406,4.3070807,0.29077163,-0.24969098,0.11751511,9.431251,-70.387505,-6.4687505,144.02501,-31.441502,0.5006465,0.19411054,0.19030789,0.6851725,0.67575336,984.3659
1747655984291,0.12203395,3.67059,5.3886366,0.16676609,-0.12018765,0.10835214,9.13125,-70.36875,-6.3750005,143.8829,-31.77694,0.85999686,0.19827102,0.1902829,0.68497735,0.6747497,984.3332
1747655984313,0.2536392,3.8069808,6.4677997,0.23518294,0.0716239,0.1419497,8.71875,-70.51875,-6.3375,143.6609,-32.083923,1.1060523,0.19977215,0.19113998,0.68543065,0.67360324,984.3332
1747655984335,0.29671,4.1347976,6.3074803,0.38789913,-0.059101168,0.11446079,8.587501,-71.043755,-6.3375,143.43932,-32.489765,1.1844385,0.20221792,0.19353116,0.6859336,0.6716761,984.3317
1747655984357,0.086141616,4.7210393,5.4580283,0.31948227,-0.19532402,0.05948296,8.587501,-71.325005,-6.01875,143.32207,-32.926098,1.4058311,0.20585126,0.19510359,0.6855345,0.6705238,984.3415
1747655984379,-0.11964113,4.996214,6.2955165,0.100181825,-0.11896592,0.07536544,8.8125,-71.175,-6.01875,143.25308,-33.238914,1.6477827,0.20945816,0.19575076,0.68496144,0.6698035,984.3415
1747655984400,-0.23928227,5.163711,8.49452,0.12950334,-0.19532402,0.15172353,9.075001,-71.287506,-5.9812503,143.1504,-33.357758,1.8419943,0.21108411,0.19535795,0.68514425,0.66922057,984.35175
1747655984421,-0.019142581,5.656633,9.064013,0.2046397,-0.27412558,0.21952952,9.09375,-71.137505,-6.1687503,142.9727,-33.4954,2.1652648,0.21466553,0.1944147,0.68557125,0.66791743,984.35175
1747655984442,0.8446664,6.1064835,9.303294,0.14844014,-0.23258677,0.2042579,8.587501,-71.137505,-6.3562503,142.7217,-33.696293,2.6107914,0.21715127,0.19374055,0.6859911,0.66687787,984.37006
1747655984465,0.21535404,6.6687965,9.305687,-0.016493348,-0.058490302,-0.025427246,7.7250004,-71.25,-6.2812505,142.45729,-33.871117,3.172581,0.22017857,0.19238244,0.686267,0.665994,984.37006
1747655984486,-1.2011969,6.8315086,8.762517,-0.30482152,0.04046979,8.3993905E-4,7.4437504,-71.043755,-6.0,142.50009,-33.74902,3.118787,0.21925983,0.19183666,0.6862631,0.66645837,984.38885
1747655984507,-1.442872,6.597012,9.068798,-0.67867076,0.03008509,0.05459604,7.3875003,-70.950005,-5.7937503,142.49849,-33.26285,3.0097904,0.21588643,0.1894418,0.6872131,0.66726536,984.38885
1747655984530,0.2416751,5.4987063,10.949556,-1.3439025,-0.1574504,0.05459604,7.425,-70.78125,-5.55,142.46384,-32.280056,2.982613,0.2082832,0.18137746,0.68975025,0.6693018,984.4057
1747655984552,2.1966112,4.426722,17.943777,-1.2596031,0.05818487,0.022831071,7.425,-70.5,-6.0750003,142.48253,-30.7473,3.1270394,0.19993752,0.17067623,0.6922401,0.672085,984.4057
1747655984573,2.4382863,4.613362,17.938992,-0.008552107,0.42897978,0.024663666,7.1625004,-70.256256,-6.8437505,142.5088,-28.960379,2.8249147,0.19002229,0.16415165,0.6952507,0.6734777,984.4653
1747655984596,2.012364,4.9435716,13.225131,0.5705477,0.10461059,-0.044364054,7.33125,-69.918755,-7.33125,142.49313,-28.914507,2.6301622,0.18891543,0.16683869,0.69575375,0.6726088,984.4653
1747655984617,1.9405792,4.65404,8.181061,0.57971066,-0.24541493,-0.14454588,7.6312504,-69.84375,-7.6125,142.58734,-29.957039,2.6634996,0.1948328,0.17119622,0.6937271,0.6719187,984.4965
1747655984639,1.6845472,4.2520456,6.9056864,0.35979936,-0.060322896,-0.25816673,7.8750005,-69.9375,-7.9875,142.78687,-30.533716,2.8555477,0.20036478,0.1738557,0.6907994,0.67262495,984.48553
1747655984660,1.0193424,4.017549,5.5513487,-0.019547673,0.035582874,-0.33757916,7.93125,-70.012505,-7.55625,143.10493,-30.889036,2.7620304,0.2015701,0.17585364,0.68856037,0.67403984,984.48553
1747655984681,1.430908,3.8620157,6.63769,-0.2944368,-0.04382955,-0.40660688,8.15625,-70.18125,-7.2937503,143.52046,-30.878592,2.531129,0.20027198,0.17575161,0.6864872,0.67656326,984.45624
1747655984703,1.0025927,3.3403804,9.253045,-0.239459,0.08872811,-0.49396053,8.175,-69.918755,-7.3500004,144.06488,-30.551416,2.3177197,0.19765252,0.17400563,0.68406993,0.68022335,984.45624
1747655984737,-0.08853444,3.5892339,6.3744793,0.38973173,0.12476913,-0.2691623,8.231251,-69.731255,-7.2375,145.15321,-30.43465,1.3698192,0.19383098,0.17840791,0.67931926,0.68492734,984.44086
1747655984759,0.72023964,4.1036906,4.8239303,0.37140578,-0.21059564,-0.20196716,8.306251,-69.506256,-6.95625,145.53491,-30.982998,1.0778228,0.19683056,0.18221076,0.67647344,0.6858868,984.4018
1747655984780,0.65084773,4.220939,5.558527,0.25595233,-0.17211115,-0.26855144,8.175,-69.28125,-6.7875004,145.80682,-31.394907,1.200767,0.20028101,0.1831848,0.67392576,0.6871352,984.4018
1747655984803,-0.49052864,4.2687955,5.4388857,0.171653,0.067958705,-0.16165009,8.512501,-68.793755,-6.80625,146.26613,-31.818655,1.0825546,0.20212425,0.1853674,0.6712504,0.68862736,984.3708
1747655984825,0.4019942,4.65404,6.2548385,0.16982041,-0.024281874,-0.057192214,8.700001,-68.662506,-6.6000004,146.38391,-32.01579,0.94670254,0.20272437,0.18710873,0.6703488,0.6888582,984.3708
1747655984846,0.29671,4.8622155,6.664011,0.23518294,-0.15439607,-0.16898046,8.75625,-68.662506,-6.7312503,146.48677,-32.246185,0.9861274,0.20510039,0.1882446,0.66884875,0.6893034,984.36005
1747655984868,-1.2179468,4.8789654,6.570691,0.2046397,-4.581486E-4,-0.11827869,9.337501,-68.4375,-6.99375,146.70323,-32.52579,1.0213276,0.20709582,0.18949844,0.6670509,0.6901049,984.36005
1747655984890,-1.9286151,5.1206403,7.537391,0.15332706,0.22800528,0.17371467,9.13125,-68.53125,-6.525,146.79823,-32.748882,0.8706852,0.20728458,0.19170606,0.6667381,0.6897407,984.35126
1747655984916,-0.6221339,5.6183476,8.2456665,0.2932151,-0.16661337,0.41561714,9.46875,-68.53125,-6.6000004,146.21584,-33.1482,0.82512444,0.20857686,0.19470392,0.6692971,0.68602294,984.36444
1747655984938,0.72023964,5.8073807,9.114262,0.18081598,-0.42867437,0.38201955,9.243751,-68.568756,-6.24375,145.71065,-33.44456,1.411338,0.2140499,0.19338956,0.6712843,0.6827595,984.36444
1747655984959,1.7371893,5.9676995,9.915857,-0.03604102,-0.28451028,0.24518585,9.01875,-68.64375,-6.0375004,145.28407,-33.57675,2.1448965,0.2170963,0.19128048,0.6722358,0.68145436,984.37787
1747655984980,0.5838487,6.161518,11.117054,-0.19975278,0.35017824,0.082084954,8.475,-68.756256,-5.9812503,145.05449,-33.444107,2.4594088,0.2171059,0.18908443,0.6738563,0.6804629,984.37787
1747655985001,-0.45702913,6.235696,11.404193,-0.2877173,0.2206749,0.08758274,8.118751,-69.1125,-6.0375004,144.93158,-33.182564,2.1645913,0.21331826,0.1895393,0.67555755,0.6798471,984.4001
1747655985022,-0.2536392,5.8073807,11.66501,-0.4062251,0.020311253,0.07170025,7.8,-69.15,-6.0750003,144.82564,-32.825676,1.9655374,0.2101463,0.18817094,0.6770168,0.67976356,984.4001
1747655985043,-0.69152576,5.1086764,12.177074,-0.5076286,0.27198756,0.036880963,8.418751,-68.606255,-6.6000004,144.75023,-32.027554,1.8516082,0.205404,0.18475376,0.67872196,0.6804497,984.43964
1747655985065,-1.442872,4.979464,11.487942,-0.48258317,0.26526803,0.1419497,8.75625,-68.287506,-6.7125,144.65756,-31.267868,1.4140655,0.19823998,0.18290998,0.6811827,0.6806137,984.43964
1747655985088,-0.30149564,4.496114,11.215159,-0.53084147,0.011148282,0.2079231,8.90625,-68.11875,-6.9,144.44487,-30.66264,1.3151832,0.19376425,0.18021159,0.6835841,0.6802147,984.45135
1747655985109,0.18903299,4.113262,10.997413,-0.5167916,0.0697913,0.15844305,8.8125,-68.11875,-6.7125,144.22507,-30.017572,1.4038393,0.19013655,0.17618749,0.68587977,0.6799816,984.45135
1747655985130,0.14356937,3.8572302,10.19821,-0.4667007,0.08933897,0.14317143,8.587501,-68.11875,-7.4625,144.05597,-29.399584,1.3849002,0.18514043,0.172089,0.68846506,0.6797973,984.4521
1747655985152,0.18424734,3.6179478,9.827323,-0.1875355,0.083230324,0.18409938,8.53125,-68.08125,-7.6875005,143.88858,-28.865387,1.3723439,0.18144004,0.16899167,0.69077414,0.6792293,984.4521
1747655985173,0.22492532,3.5820556,8.456235,0.16982041,0.09789108,0.2494619,8.625,-67.6875,-7.7250004,143.67331,-28.58899,1.3860538,0.1806932,0.16877647,0.6924595,0.67776424,984.43964
1747655985195,0.47856453,3.6753755,5.400601,0.36163196,-0.034666575,0.24152066,8.19375,-67.425,-7.6312504,143.1247,-28.98688,1.5361725,0.18316196,0.17100742,0.69409424,0.674864,984.4035
1747655985216,0.53359944,3.5700915,4.331009,0.20219624,-0.033444848,0.16821688,8.043751,-67.59375,-7.275,142.84935,-29.352554,1.7608294,0.18622535,0.17238295,0.6948178,0.67292833,984.4035
1747655985238,0.37088752,3.5844483,4.7449675,0.05742129,0.10522146,0.12606722,8.118751,-67.6875,-7.2187505,142.6465,-29.541176,1.8509426,0.187558,0.1733441,0.6955613,0.6715418,984.3715
1747655985259,0.04546363,3.7328033,5.7355957,0.073303774,0.0697913,0.09552398,8.0625,-67.6125,-7.0125003,142.49707,-29.607006,1.810813,0.187474,0.17442754,0.6965243,0.67028534,984.3715
1747655985282,0.36131623,4.106084,5.912665,0.13316852,-4.581486E-4,0.058261227,7.8375,-67.6875,-7.0312505,142.32109,-29.773447,1.809273,0.18816811,0.17553142,0.697091,0.66921276,984.3542
1747655985305,0.2656033,4.369294,6.3720865,0.12522727,-0.115911596,-0.037033677,7.89375,-67.55625,-7.2937503,142.28693,-29.94219,1.8781501,0.18989849,0.17632698,0.6967518,0.6688679,984.3542
1747655985326,0.10767702,4.6325045,7.580462,0.18325943,-0.1470657,-0.06330086,7.7250004,-67.74375,-7.4062505,142.34254,-30.106798,1.9936584,0.19173501,0.1765611,0.6958856,0.66918397,984.34296
1747655985347,-0.11724831,4.981857,8.078169,0.25778493,-0.15439607,-0.012599086,7.9125004,-67.74375,-7.5937505,142.42482,-30.409834,2.149238,0.19404861,0.17729937,0.6949048,0.66934097,984.34296
1747655985369,0.086141616,5.285745,8.985049,0.20647229,-0.11530073,0.0075594517,7.89375,-67.70625,-7.4437504,142.43408,-30.688105,2.3101308,0.19718802,0.17823103,0.69398516,0.66913015,984.3483
1747655985390,0.28713873,5.4484572,9.765109,0.14844014,-0.10919208,-0.013209951,8.15625,-67.725006,-7.0875,142.43124,-30.899195,2.4314563,0.19856678,0.17866571,0.6936104,0.668995,984.3483
1747655985411,0.30388847,5.871987,10.581061,0.10873393,-0.12202024,-0.081015944,8.4375,-67.875,-6.8812504,142.4754,-31.041882,2.5487905,0.2005096,0.1788151,0.69273883,0.66927874,984.3642
1747655985433,-0.22253251,6.262017,10.928021,-0.058032155,-0.0481056,-0.11950042,8.56875,-67.74375,-6.7312503,142.58861,-31.140564,2.619323,0.20139572,0.17867419,0.6915842,0.6702437,984.3642
1747655985455,-0.51445687,6.7812595,11.523834,-0.16187917,-0.039553493,-0.05902481,8.475,-67.78125,-7.18125,142.80077,-31.015305,2.5173466,0.19999823,0.17805845,0.6910614,0.67136437,984.3864
1747655985477,0.31345975,6.2524457,11.16491,-0.37018406,-0.43722647,-0.0816268,8.625,-67.70625,-7.4812503,142.92714,-30.727936,2.6497252,0.1996615,0.17547987,0.69063747,0.67257863,984.4118
1747655985499,2.2085752,4.6372905,12.576675,-0.6701187,-0.1660025,-0.19769111,8.6625,-67.575005,-7.8187504,143.1151,-30.198183,3.044113,0.19853166,0.16809568,0.6898122,0.6756391,984.4118
1747655985520,1.698904,3.7663028,14.215759,-0.4856375,0.42897978,-0.2850448,8.887501,-67.443756,-8.1,143.42165,-29.400267,2.9871316,0.19294989,0.16401424,0.6896975,0.67837083,984.43744
1747655985541,0.62931234,3.8333018,11.700903,-0.037873615,0.25243986,-0.23984079,8.6625,-67.425,-8.137501,143.7755,-28.822313,2.3889132,0.18711573,0.16436753,0.6893757,0.6802442,984.43744
1747655985563,0.38524446,3.8572302,8.420342,-0.11728604,-0.14828743,-0.2239583,8.90625,-66.731255,-8.475,144.21568,-28.67308,1.9813067,0.18550682,0.16481397,0.6878179,0.68215114,984.43134
1747655985584,0.6987042,3.4672,7.9011,-0.5345067,0.013591741,-0.26244277,9.168751,-66.43125,-8.55,144.52847,-28.363703,2.0017161,0.18486787,0.16310522,0.68673867,0.6838206,984.43134
1747655985606,0.32303107,3.199204,9.037691,-0.67378384,0.46013388,-0.2013563,9.356251,-66.318756,-8.38125,144.84995,-27.677744,1.6693262,0.17865084,0.15963936,0.686061,0.686964,984.4123
1747655985627,0.30388847,3.385844,9.693324,-0.33964083,0.4564687,-0.06696605,10.03125,-66.05625,-8.231251,145.07013,-26.837566,0.8626766,0.1691483,0.15904218,0.68707186,0.68849593,984.4123
1747655985648,0.45224348,3.6681972,8.023134,0.13805544,0.11988221,-0.02481638,10.181251,-65.793755,-8.493751,145.11615,-26.659437,0.4749465,0.16582996,0.16022217,0.68757766,0.6885248,984.39496
1747655985669,0.80877405,3.818945,6.4534426,0.28893903,-0.16844596,-0.07429643,10.06875,-65.86875,-8.38125,145.15184,-26.879847,0.45315564,0.16706467,0.16163239,0.68710166,0.6883718,984.39496
1747655985691,0.4354937,3.682554,5.4436717,0.21380267,0.013591741,-0.108504854,10.012501,-65.625,-8.512501,145.26297,-27.20737,0.602941,0.1705653,0.16291167,0.68548465,0.68882364,984.37714
1747655985712,0.3062813,3.7064822,5.7188463,0.028099779,0.41981682,-0.07429643,10.087501,-65.756256,-8.700001,145.41084,-27.46513,0.25569943,0.16977495,0.16593684,0.6849339,0.6888447,984.37714
1747655985734,-0.10767702,3.9242291,6.166304,0.058032155,0.46929687,-0.03581195,10.05,-65.90625,-7.9875,145.4619,-27.514973,-0.30187038,0.16685437,0.16947189,0.6852152,0.68841785,984.361
1747655985757,-0.1698904,4.4075794,6.853044,0.16493349,0.16019928,0.013057235,10.387501,-66.01875,-7.9875,145.46521,-27.630224,-0.7574025,0.1647767,0.17348677,0.68556875,0.6875656,984.3532
1747655985778,-0.14117654,4.6803613,7.3268228,0.2480111,0.020922119,0.03932442,10.650001,-66.0,-8.118751,145.44441,-27.788244,-0.8773328,0.16542931,0.17500037,0.68552405,0.68706965,984.3532
1747655985799,-0.2440679,5.058427,7.3770723,0.33047783,0.11071924,0.0796415,10.6125,-66.075005,-7.5000005,145.33887,-28.301346,-0.89399433,0.1679205,0.17782906,0.6854136,0.6858482,984.3498
1747655985822,0.14356937,5.3240304,8.188239,0.3243692,0.16447534,0.051541716,10.725,-66.1875,-7.5375004,145.22363,-28.691162,-0.998271,0.16981448,0.18171766,0.6856565,0.6841176,984.3498
1747655985843,-0.3684947,5.326423,8.8701935,0.35491243,0.0923933,-0.024205517,10.9125,-66.43125,-7.1062503,145.15958,-29.073479,-1.1376156,0.1712416,0.184891,0.68543947,0.68312836,984.3598
1747655985866,-1.2323036,5.4699926,8.915657,0.38851,-0.114079,0.05948296,10.78125,-66.95625,-6.39375,145.18304,-29.697649,-1.2554789,0.1739524,0.18846464,0.6845638,0.6823445,984.3598
1747655985887,-0.33499518,5.663811,9.851251,0.35491243,-0.43233955,0.12484549,11.043751,-67.14375,-5.8125,145.09381,-30.127165,-1.0099959,0.17910902,0.18961558,0.68394214,0.68131423,984.3715
1747655985909,0.26799613,5.6303115,10.628919,0.32925612,-0.4072941,0.057650365,11.34375,-67.162506,-5.68125,144.96893,-30.613024,-0.31457075,0.1846136,0.18870915,0.6831743,0.6808668,984.3715
1747655985931,-0.634098,6.068198,10.427921,0.13439025,-0.19593488,0.10651954,10.931251,-67.05,-5.4187503,144.9199,-30.908854,0.09816378,0.1887051,0.1881442,0.6824748,0.6806029,984.39276
1747655985954,0.09332009,5.704489,11.60519,-0.3280344,-0.16111559,0.19448407,10.9875,-67.36875,-5.55,144.65121,-30.795954,0.5178266,0.19006668,0.18545663,0.6836836,0.679748,984.41766
1747655985975,0.6053841,4.7688956,13.160524,-0.46975502,-0.06582068,0.14011711,10.81875,-67.481255,-5.7562504,144.54477,-30.57246,0.6605889,0.18887554,0.18238723,0.6849524,0.6796331,984.41766
1747655985998,-0.4019942,3.9625144,13.854444,-0.10140356,0.066126116,0.050319985,10.44375,-67.59375,-5.7375,144.36636,-29.763765,0.80142087,0.18455522,0.17777564,0.6871212,0.6798527,984.4499
1747655986019,-0.86859465,4.1515474,10.320244,0.20341797,-0.27595815,0.13828452,10.293751,-67.6875,-5.775,144.30292,-29.642073,0.811649,0.18484384,0.17736804,0.6875775,0.6794193,984.4499
1747655986041,-0.33738798,4.3070807,8.425129,0.056810424,-0.31383178,0.10713041,9.731251,-67.89375,-5.53125,144.1668,-29.79764,1.1705416,0.18797077,0.17607601,0.68761176,0.6788626,984.4516
1747655986063,-0.69152576,4.386044,7.207182,-0.31398448,0.041080657,0.10346522,9.450001,-67.9875,-5.4,144.03159,-29.774414,1.5703906,0.18885635,0.17382069,0.68815213,0.6786503,984.4516
1747655986084,-0.44027936,3.8739798,7.8221374,-0.5913171,0.2102902,0.14011711,9.50625,-68.15625,-5.2125,143.82846,-29.04928,1.4203118,0.18377858,0.17105122,0.69041616,0.67844856,984.4367
1747655986106,0.20338993,3.3523445,8.5112705,-0.3762927,0.1357647,0.13400847,9.262501,-67.93125,-5.2312503,143.65839,-28.424541,1.282173,0.17903343,0.16832924,0.6925914,0.67818093,984.4367
1747655986128,0.12921242,3.1609187,7.6307116,0.020158539,0.043524116,0.11995857,8.981251,-68.100006,-5.4750004,143.50656,-28.10874,1.2346784,0.17666306,0.1669283,0.6940796,0.67762727,984.4277
1747655986151,-0.0071784677,3.1250265,5.395815,0.37262753,-0.061544627,0.16394083,8.75625,-68.231255,-5.49375,143.35313,-28.225782,1.3010494,0.178862,0.16830078,0.69491345,0.675854,984.4277
1747655986172,-0.10049855,3.4648073,4.06062,0.29688028,-0.07009673,0.19509494,8.587501,-68.175,-5.625,143.15222,-28.613424,1.4631132,0.18126005,0.16966248,0.69521576,0.6745624,984.3962
1747655986194,0.36131623,3.4408789,4.0438704,0.03604102,-0.05054906,0.18837543,8.85,-68.2125,-5.8500004,142.90146,-28.945938,1.653505,0.1839776,0.17069791,0.69624573,0.6725001,984.3962
1747655986217,0.7178468,3.4528432,6.759724,-0.091629714,0.017867794,0.14683662,9.01875,-68.512505,-5.7375,142.51244,-28.94862,1.9618899,0.18448313,0.16939716,0.69759196,0.6712943,984.372
1747655986239,0.45702913,3.9744785,7.4273214,0.09834923,0.24449863,0.118125975,8.793751,-68.68125,-5.7000003,142.33633,-28.886768,1.9678676,0.18369201,0.1696487,0.699021,0.6699599,984.3708
1747655986261,-0.3397808,4.8909297,6.6424756,0.171653,0.21700971,0.14683662,8.53125,-68.775,-5.4187503,142.1692,-29.015774,1.7686243,0.18310039,0.17219529,0.7000269,0.66841996,984.3708
1747655986283,-0.22971097,5.4580283,7.776674,-0.07391464,-0.16172644,0.17127122,8.212501,-68.887505,-5.1375003,141.86465,-29.225946,1.72507,0.1836998,0.17349814,0.7011846,0.6667031,984.36346
1747655986303,-0.05503492,5.7379885,11.52862,-0.056810424,-0.19104797,0.22747077,7.9500003,-68.943756,-5.11875,141.64058,-29.106947,2.0507512,0.1846601,0.17124201,0.7022095,0.665942,984.36346
1747655986326,1.430908,5.9676995,12.461821,0.37934703,-0.055435978,0.12301289,7.4812503,-68.90625,-5.1375003,141.38065,-29.144096,2.3457534,0.1869392,0.17048387,0.7034015,0.66424036,984.38934
1747655986347,1.1102697,6.611369,10.856236,0.5235111,-0.067653276,-0.09750929,7.33125,-68.981255,-5.1000004,141.28162,-29.72249,2.5163715,0.19043428,0.17301738,0.70273876,0.6632933,984.38934
1747655986368,-0.076570325,7.2023964,10.018748,0.44654214,-0.1311832,-0.2325104,6.6937504,-68.7375,-4.875,141.47397,-30.301325,2.5285246,0.19410065,0.17621943,0.70061564,0.66363347,984.41595
1747655986390,-0.77766734,7.4177504,10.3681,0.22479823,-0.27656904,-0.19524765,6.1875005,-68.925,-4.6687503,141.76132,-30.747486,2.5755134,0.19739191,0.17820233,0.69803846,0.6648479,984.41595
1747655986411,0.1794617,6.62094,10.602597,0.047647454,-0.21609342,-0.11094832,6.3187504,-68.90625,-4.5375004,141.99173,-30.989952,2.7226264,0.20051312,0.17838563,0.6956088,0.6664094,984.4311
1747655986432,1.8807586,5.4676,11.174481,-0.12950334,-0.20815217,-0.14393501,6.1125,-69.01875,-4.2562504,142.14803,-31.039576,2.8818247,0.20172353,0.17704237,0.6945067,0.6675508,984.4311
1747655986455,2.3688943,4.694718,11.389835,-0.15882485,0.07895427,-0.324751,6.1312504,-69.131256,-4.2562504,142.3578,-30.876348,3.0217397,0.20105325,0.17472659,0.6930317,0.669892,984.44696
1747655986477,0.782453,4.4195433,9.695718,-0.086742796,0.32330018,-0.45364347,6.3187504,-68.83125,-4.425,143.00514,-30.600386,2.5218523,0.19719218,0.17602395,0.690769,0.6730297,984.4565
1747655986500,-0.37567315,4.058227,8.62134,-0.18325943,-0.04016436,-0.34735298,6.3187504,-68.850006,-4.6687503,143.6803,-30.445839,1.8216789,0.19355199,0.17743798,0.6880544,0.6764869,984.4565
1747655986524,0.8662018,3.5509489,9.868001,-0.25534147,-0.3932442,-0.21662793,6.4687505,-68.512505,-5.0625,144.26038,-30.02944,1.8296815,0.19257097,0.1739337,0.6858644,0.67989236,984.44305
1747655986546,1.3064811,3.1872396,9.734002,-0.12339468,-0.30527967,-0.23312128,6.43125,-68.175,-5.15625,144.57304,-29.750296,2.1523762,0.19327743,0.16985865,0.6841276,0.68246704,984.44305
1747655986568,0.95712906,3.182454,8.334201,-0.08002329,0.0490219,-0.1909716,6.7500005,-67.912506,-5.15625,144.87372,-29.59405,2.2672205,0.19321163,0.1676189,0.6822613,0.6849034,984.436
1747655986589,0.78723866,3.2303107,7.396215,0.018936807,0.23655738,-0.1494328,6.5625005,-67.631256,-5.175,145.10126,-29.487915,2.0701997,0.19150834,0.16825886,0.68155587,0.68592644,984.436
1747655986610,0.81595254,3.4360933,6.0346985,0.0048869182,0.08933897,-0.15493058,6.7125,-67.350006,-5.4,145.27538,-29.488602,1.7547177,0.1899531,0.17010887,0.68075335,0.68669915,984.4211
1747655986632,0.45942193,3.5581272,5.864808,-0.10140356,0.06918044,-0.17508912,6.7312503,-67.537506,-5.55,145.50745,-29.483639,1.5248202,0.18904658,0.17049707,0.67987216,0.6877252,984.4211
1747655986652,0.11964113,3.7471602,6.168697,-0.14782928,0.14553854,-0.09812015,6.99375,-67.2375,-5.7562504,145.70543,-29.365913,1.3374228,0.18732847,0.17058288,0.6792604,0.68877774,984.3869
1747655986673,0.46181476,4.0701914,6.63769,-0.046425723,0.1339321,-0.06269,8.08125,-67.0875,-5.7562504,145.85516,-29.180515,1.0161045,0.18506792,0.17109805,0.6791567,0.6893631,984.35614
1747655986694,0.5288138,4.331009,6.836294,0.08857539,0.04291325,-0.090178914,8.34375,-66.75,-5.6062503,145.93507,-29.198648,0.8686361,0.18443133,0.17195481,0.6788486,0.6896239,984.35614
1747655986714,0.5240282,4.479364,6.8817577,0.20097451,0.008704823,-0.06635518,8.475,-66.76875,-5.5687504,146.03134,-29.354542,0.80110127,0.18511426,0.17312941,0.67811763,0.68986624,984.3354
1747655986736,0.67477596,4.962714,7.190432,0.24373505,-0.014508039,-0.06146827,7.9875,-66.61875,-5.68125,146.09726,-29.611788,0.7820159,0.18710463,0.17505987,0.6771348,0.6898075,984.3354
1747655986758,0.4139583,5.1876397,7.530213,0.24129158,0.008093959,-0.065744326,7.9500003,-66.637505,-5.8125,146.13016,-29.756823,0.782256,0.18844274,0.17633678,0.6764796,0.68976086,984.3354
1747655986780,0.15074782,5.5369916,8.166703,0.21135922,0.17302746,-0.01809687,7.4625,-66.375,-6.2250004,146.22235,-30.253984,0.64497906,0.19000407,0.1797396,0.6756719,0.6892457,984.32635
1747655986802,0.02632105,5.6470613,9.5760765,0.27122396,7.6358096E-4,-0.05291616,7.18125,-66.318756,-5.90625,146.24687,-30.578955,0.43489248,0.19066374,0.18219568,0.67531455,0.6887687,984.3193
1747655986822,-0.29910284,6.1567326,9.985249,0.3243692,-0.24846925,-0.040088,6.99375,-66.39375,-5.9437504,146.33423,-31.000355,0.542706,0.19395496,0.18389842,0.6739515,0.6887323,984.3193
1747655986842,0.25124636,6.4462643,9.939785,0.14905101,-0.2423606,-0.027259842,7.14375,-66.4875,-5.9625,146.3839,-31.300589,0.80988306,0.19738083,0.18400198,0.6727788,0.68887794,984.3278
1747655986863,0.3684947,6.4701924,10.779666,-0.091629714,0.066736974,-0.07857248,7.18125,-66.506256,-5.86875,146.45212,-31.34974,0.9295322,0.19847403,0.18346795,0.67212594,0.68934333,984.3278
1747655986885,-0.5982057,6.65444,11.320444,-0.11606431,0.42103854,-0.1146135,7.2562504,-66.450005,-6.1687503,146.56123,-31.207203,0.60085845,0.19589862,0.18438461,0.67215556,0.68980646,984.34467
1747655986905,-1.2969099,6.5443697,10.573883,-0.09590577,0.15958843,-0.050472703,7.2000003,-66.46875,-6.3187504,146.6679,-31.088999,0.07214793,0.1923228,0.18662567,0.6723674,0.6900036,984.34467
1747655986927,-0.62452674,5.7810597,11.097912,-0.07391464,-0.21548255,-0.026648976,7.33125,-66.375,-6.3750005,146.73625,-30.954954,-0.040467966,0.1909967,0.18637158,0.6722483,0.69055635,984.363
1747655986947,-0.8805587,5.3742795,10.9017,0.018325943,-0.09575305,-0.033979353,7.3875003,-66.20625,-6.3562503,146.79991,-30.883213,0.13741922,0.19169447,0.1847885,0.6717439,0.69127893,984.363
1747655986970,-1.253839,4.8933225,9.370294,-0.037262753,-0.02367101,0.1297324,7.6125,-65.9625,-6.7125,146.81595,-30.881916,0.14773457,0.19172068,0.18469168,0.6717507,0.691291,984.3754
1747655986991,-0.47856453,4.7425747,8.941978,-0.21197008,-0.13423753,0.16149737,7.70625,-65.887505,-6.6562505,146.66861,-30.806412,0.22622955,0.19146621,0.18351825,0.67277473,0.69067794,984.3754
1747655987013,0.5192425,4.345366,9.128618,-0.31459537,-0.24297146,0.03565923,7.9125004,-65.625,-6.6000004,146.44,-30.374918,0.6151413,0.19084123,0.17954643,0.6740463,0.690655,984.383
1747655987034,0.31345975,3.8763726,8.843872,-0.3103193,-0.2612974,-0.04741838,7.6312504,-65.83125,-6.7500005,146.43283,-30.188873,0.76562655,0.19030257,0.17560123,0.67418176,0.691685,984.383
1747655987056,-0.34456646,3.2470603,8.769695,-0.22296564,-0.013286309,0.030161448,7.4812503,-65.5875,-6.8625,146.53813,-29.637442,1.114573,0.18906668,0.17149353,0.6741399,0.69309384,984.40204
1747655987078,-0.3278167,3.182454,8.099705,0.04092794,0.28909177,0.21952952,7.05,-65.55,-7.0687504,146.41493,-29.367867,1.0337584,0.18715505,0.17117071,0.67536265,0.6925019,984.40155
1747655987099,-0.011964113,3.3403804,6.4366927,0.30298892,0.2451095,0.3362047,6.80625,-65.53125,-7.74375,146.0851,-29.469463,0.84680796,0.18626992,0.17418604,0.67800546,0.68939924,984.40155
1747655987120,0.76570326,3.5653057,5.6039906,0.3103193,-0.12324197,0.28977898,6.95625,-65.4,-7.89375,145.65497,-29.803083,0.85848844,0.18833221,0.1763818,0.6798847,0.6864235,984.3869
1747655987142,0.5886344,3.6346977,6.257231,0.33169958,-0.075594515,0.21219915,7.275,-65.68125,-7.5000005,145.16125,-30.321577,1.3517927,0.1927791,0.17706946,0.6809932,0.6839085,984.3869
1747655987165,-0.2321038,4.2185464,6.7525454,0.45875946,0.14370593,0.3001637,7.2375,-66.075005,-7.2937503,144.86188,-30.725098,1.4893354,0.19549982,0.1791947,0.6819336,0.68164194,984.37836
1747655987186,0.39481574,4.6396832,6.769295,0.67867076,0.27992877,0.38812822,7.18125,-66.375,-7.4437504,144.41208,-31.296453,1.5104162,0.19907951,0.18459295,0.68406725,0.6770117,984.37836
1747655987206,0.66759753,5.2426744,5.919843,0.767857,0.23044874,0.2683987,6.7500005,-66.8625,-7.2937503,143.79457,-32.29375,1.4608238,0.20279762,0.1906579,0.6855635,0.6727001,984.372
1747655987229,0.09092726,5.682954,5.5657053,0.66034484,0.035582874,0.10224349,6.58125,-67.21875,-7.2937503,143.48164,-33.149223,1.4461656,0.2071489,0.19646394,0.6858639,0.6693892,984.372
1747655987250,-0.5240282,5.989235,6.5084777,0.343306,-0.20509785,0.04176788,6.6375003,-67.256256,-7.1062503,143.37285,-33.85082,1.5409,0.21260218,0.20088312,0.68476486,0.66749036,984.3649
1747655987271,0.038285162,6.1064835,7.9920278,0.013439025,-0.31566438,0.072921984,6.4687505,-67.425,-6.675,143.32462,-34.245647,1.7946657,0.21599993,0.2011133,0.68401384,0.6671001,984.3649
1747655987292,0.70348984,6.15434,11.382657,-0.1594357,-0.1678351,0.053985175,6.4125004,-67.36875,-6.2812505,143.23611,-34.166145,2.3431213,0.21786378,0.19792673,0.6840082,0.66745275,984.3813
1747655987314,-0.17706887,6.613762,12.433106,0.07513637,0.40026915,0.03565923,6.3187504,-67.6125,-6.1125,143.1948,-34.023766,2.310766,0.21677117,0.19734347,0.68462145,0.6673525,984.4318
1747655987334,-0.8805587,7.2263246,10.394422,0.048258316,0.27382013,0.105908684,6.3187504,-67.65,-6.1312504,143.09317,-34.110943,1.8393183,0.21387646,0.20149383,0.6860099,0.6656182,984.4318
1747655987356,0.5312066,6.896115,9.994821,-0.5259546,-0.5416843,0.003894263,6.43125,-67.668755,-6.2250004,142.9676,-33.987522,1.8360926,0.2134159,0.20021689,0.6866116,0.6655309,984.4587
1747655987379,1.9262222,5.2546387,13.92862,-0.8203914,-0.42562005,-0.082848534,6.3562503,-67.725006,-6.24375,143.06158,-33.256226,2.4824612,0.21266349,0.18958983,0.68656886,0.66891944,984.4587
1747655987400,1.698904,4.168297,14.816358,-0.35124725,0.4424188,-0.05169443,6.2812505,-67.537506,-6.6375003,143.22044,-32.32765,2.7368565,0.20813113,0.18388774,0.6874082,0.6710713,984.498
1747655987422,1.820938,4.4195433,11.093125,0.13500112,0.44486228,-0.077961616,6.5625005,-67.125,-7.275,143.29315,-31.828592,1.9671173,0.20218225,0.18589747,0.68890005,0.6708063,984.498
1747655987443,1.5457634,4.476971,7.1473613,0.08429934,-0.09758565,-0.23006694,6.61875,-66.975006,-7.8187504,143.4366,-31.98208,1.6728177,0.20153588,0.18830065,0.68830776,0.67093855,984.50555
1747655987464,1.2753744,4.206582,5.898308,-0.31459537,-0.18493931,-0.35346162,6.8437505,-66.637505,-8.15625,143.78075,-31.959105,1.6967337,0.20209312,0.18743339,0.6863493,0.6730169,984.50555
1747655987486,0.56470615,3.7423747,6.6592255,-0.64079714,0.07589995,-0.36567894,7.275,-66.525,-8.175,144.25975,-31.502968,1.6119695,0.19853307,0.18350667,0.6841359,0.6773979,984.4858
1747655987507,0.7298109,3.818945,6.8195443,-0.6530144,0.26343542,-0.27404922,7.0125003,-66.4875,-8.681251,144.78381,-30.59909,1.1352355,0.19242884,0.1807776,0.683569,0.68045866,984.4858
1747655987528,1.038485,4.0773697,7.240681,-0.51312643,-0.0016798781,-0.34124434,7.0687504,-66.450005,-8.981251,145.13446,-29.91573,0.748546,0.1866549,0.17837325,0.68314534,0.6831218,984.45795
1747655987554,0.2440679,3.8691943,7.422536,-0.23884813,-0.12324197,-0.4719694,7.8,-65.756256,-9.168751,145.89862,-29.25468,0.5913908,0.18295066,0.17413859,0.67989224,0.6884413,984.4462
1747655987575,-1.1700903,4.0869412,7.207182,0.021991132,0.07956514,-0.29237515,8.137501,-65.325005,-9.8625,146.4301,-29.09621,0.35379475,0.1814201,0.17376098,0.67723167,0.69155705,984.4462
1747655987596,-0.91405827,4.4913282,6.166304,0.28405213,-0.0108428495,-0.08590286,8.45625,-65.006256,-10.106251,146.71162,-29.22122,0.08489009,0.18105268,0.17564091,0.67561895,0.6927548,984.4399
1747655987663,-0.8422736,4.792824,6.530013,0.14844014,0.024587307,0.0032833982,9.431251,-65.100006,-10.35,147.25688,-30.47948,0.55021393,0.19223778,0.17932945,0.6695576,0.6946785,984.4411
1747655987684,0.27517462,5.0368915,7.877172,0.17287473,0.083230324,0.10713041,9.5625,-65.0625,-10.2375,147.16856,-30.655647,0.5006275,0.19289055,0.18079276,0.6698254,0.69385964,984.44916
1747655987705,0.4761717,5.6207404,8.382058,0.32375833,-0.17088942,0.046043932,9.618751,-65.25,-9.806251,147.05392,-30.92746,0.55179626,0.19464087,0.18227854,0.6700165,0.6927967,984.44916
1747655987727,-0.26799613,5.8935223,10.152746,0.41233373,-0.7811433,0.016111558,9.13125,-65.325005,-9.975,147.03665,-31.312658,0.95925707,0.20105162,0.18160966,0.6684353,0.6926691,984.46454
1747655987748,-0.29192436,5.6781683,10.947164,0.5064069,-0.683405,0.2183078,9.09375,-65.4375,-10.425,147.02733,-31.782028,1.8558211,0.20925398,0.17905658,0.66664433,0.6926304,984.46454
1747655987769,1.4380864,6.046663,10.396814,0.4092794,-0.14217877,0.31665704,8.962501,-65.606255,-10.368751,146.74736,-32.29259,2.6721234,0.21574754,0.17839342,0.66682875,0.6906289,984.5007
1747655987791,1.0241281,6.8889365,10.040284,0.043982264,0.4705186,0.07841977,8.94375,-65.86875,-10.575001,146.31111,-32.70728,2.9103296,0.21718733,0.1809703,0.66859,0.68779856,984.5007
1747655987813,-0.25603202,7.0803623,10.164711,-0.239459,0.446084,0.019776747,9.0375,-66.09375,-10.556251,146.18674,-32.70414,2.4344978,0.21355425,0.18376428,0.67003787,0.6867857,984.5173
1747655987835,-0.34217364,5.8672013,11.983255,-0.37568185,0.077121675,0.03199404,9.262501,-66.3,-10.387501,146.13412,-32.189323,1.8779635,0.2083356,0.18351385,0.67162514,0.68690515,984.5253
1747655987857,-0.27756742,4.7976093,12.686746,-0.08613193,-0.076816246,0.051541716,9.168751,-66.375,-10.725,146.10173,-31.79297,1.8330992,0.20538121,0.18106955,0.6727366,0.6873557,984.5253
1747655987878,-0.0741775,4.7425747,11.868401,0.22235478,-0.42806348,0.052763447,8.962501,-66.3,-10.275001,146.06459,-31.702194,2.0072365,0.2060671,0.1800052,0.6727676,0.68739957,984.53827
1747655987900,0.8111669,4.388437,9.781859,0.32864526,-0.89048815,-0.0193186,9.31875,-66.318756,-10.743751,146.06519,-31.95202,2.6828802,0.21332464,0.17659433,0.6708543,0.6879401,984.53827
1747655987922,1.3280165,4.1371903,7.6259255,-0.041538805,-0.45982847,-0.10300707,9.13125,-66.58125,-10.668751,146.15202,-32.24545,3.62879,0.22096455,0.17175543,0.6680762,0.6894555,984.5236
1747655987943,0.74895346,3.885944,7.6331043,-0.5186242,0.27259842,-0.15676318,8.75625,-66.787506,-11.306251,146.46783,-31.881731,4.0216823,0.21926671,0.16851567,0.6672905,0.6915547,984.5236
1747655987965,-0.3804588,3.7280176,8.092526,-0.4159989,0.6189587,-0.09445497,8.681251,-66.95625,-11.25,146.65065,-31.289373,3.3995292,0.21246824,0.16831972,0.66816,0.69288373,984.497
1747655987986,-0.81834537,3.7974095,7.391429,-0.028710645,0.37583455,0.020998476,9.13125,-67.14375,-11.6625,146.70703,-30.93201,2.6875594,0.20634373,0.17030881,0.66944516,0.6930082,984.497
1747655988008,-0.5838487,3.888337,5.6781683,0.29749113,-0.12324197,0.12851068,9.4875,-67.18125,-11.625,146.63025,-31.012953,2.4224613,0.20572484,0.17284627,0.6701582,0.69187385,984.46063
1747655988029,0.059820566,3.9673,4.9722853,0.3090976,-0.2875646,0.116293386,10.012501,-67.350006,-11.55,146.47357,-31.355736,2.6774209,0.20953456,0.17330849,0.66997766,0.690789,984.46063
1747655988053,0.021535404,4.0414777,5.0177493,0.012217295,0.06734784,0.083306685,10.368751,-67.51875,-11.55,146.28683,-31.765516,3.1166635,0.21315458,0.17346191,0.66979533,0.68981904,984.4284
1747655988075,-0.18664017,4.3238306,6.6975107,-0.03604102,0.3697259,0.12851068,9.993751,-67.4625,-11.56875,146.10521,-31.73438,2.9053817,0.2114909,0.17484389,0.6712051,0.6886108,984.39716
1747655988098,-0.09332009,4.692325,7.01097,0.14538582,0.38133234,0.09063706,9.918751,-67.875,-11.94375,145.921,-31.753632,2.525348,0.20913742,0.17752466,0.67280024,0.6870854,984.39716
1747655988119,-0.5455636,4.9722853,6.4414787,0.22113305,0.21517712,0.036880963,9.7875,-68.2125,-11.775001,145.79384,-31.942753,2.1868038,0.208108,0.18086325,0.6736879,0.685656,984.3837
1747655988141,-1.8544376,5.359923,7.0301127,0.25534147,-0.2771799,0.09063706,9.975,-68.08125,-11.85,145.73595,-32.21423,2.0519016,0.20945653,0.18361734,0.6735707,0.6846277,984.3837
1747655988162,-1.282553,5.572884,7.972885,0.26328272,-0.52885616,0.25495967,9.975,-68.55,-11.887501,145.63182,-32.51732,2.3844876,0.21499619,0.18262696,0.67307794,0.6836593,984.37933
1747655988184,0.6221339,5.9246287,9.659825,0.08735366,-0.534354,0.3172679,9.75,-68.925,-11.887501,145.19356,-32.886345,3.488098,0.22027767,0.17994703,0.67340297,0.6823673,984.37933
1747655988206,2.1655045,6.515656,12.083755,0.12278382,-0.29367325,0.23602287,9.4875,-69.24375,-11.962501,144.84122,-32.926666,4.2599306,0.22525543,0.17572607,0.6745113,0.6807458,984.38983
1747655988228,1.4500505,7.2502527,10.583454,0.1423315,0.1583667,0.118125975,9.3,-69.356255,-11.7375,144.52632,-33.084373,4.6986456,0.22733961,0.17547305,0.67529875,0.67933613,984.38983
1747655988248,1.0887343,7.8963146,10.241281,-0.12339468,0.19440772,0.042378742,9.09375,-69.375,-11.83125,144.36777,-33.163395,4.5786214,0.22644259,0.17717499,0.67652935,0.6779681,984.42206
1747655988270,1.2346965,7.2526455,10.408778,-0.25961754,-0.045051277,-0.05413789,8.625,-69.825005,-11.475,144.33148,-33.021946,4.43393,0.22515306,0.17700243,0.676962,0.67801076,984.42206
1747655988291,1.7347964,5.912665,11.540584,-0.42210758,-0.027947064,-0.115835235,8.34375,-69.881256,-11.325001,144.45547,-32.691425,4.4850426,0.2231787,0.17365153,0.6767187,0.67977065,984.44257
1747655988313,1.9046868,4.642076,12.528819,-0.30726498,0.6837104,-0.22762349,7.9500003,-70.256256,-11.887501,144.64679,-32.196243,4.305461,0.21691044,0.17249653,0.6771706,0.6816413,984.44257
1747655988335,0.2727818,4.4410787,10.260424,0.005497783,0.68126696,-0.19524765,8.3625,-70.05,-12.356251,145.02112,-31.695326,2.9535975,0.20842536,0.17753111,0.6777912,0.68237865,984.4665
1747655988357,0.46660042,4.651647,7.5756764,-0.07086031,0.058795735,-0.10789399,8.6625,-69.693756,-12.543751,145.2384,-31.678715,2.0933652,0.20510073,0.1808716,0.67772293,0.68257654,984.45746
1747655988379,1.5840486,4.362116,8.13799,-0.43432486,-0.29794928,-0.16226095,8.981251,-69.506256,-12.76875,145.39522,-31.489014,2.1241758,0.20421907,0.17820588,0.6768779,0.6843782,984.45746
1747655988400,1.6917256,3.7280176,9.729217,-0.57482374,-0.032223117,-0.22456917,9.6,-69.1875,-12.88125,145.64433,-30.955633,2.3379483,0.20208271,0.17320563,0.67612046,0.6870396,984.43695
1747655988424,0.9020941,3.5581272,9.138189,-0.36896232,0.49739665,-0.22762349,9.525001,-68.943756,-13.031251,146.0863,-30.022726,1.9627433,0.19578315,0.17032148,0.67585695,0.68983835,984.43695
1747655988445,0.0741775,3.7854455,7.4344997,-0.16126831,0.5914698,-0.21479532,9.993751,-68.9625,-13.575001,146.34335,-29.656921,1.2180097,0.1896363,0.1721463,0.6759676,0.6909932,984.436
1747655988466,-0.40917268,3.9744785,5.692525,0.020158539,0.2451095,-0.17264566,10.181251,-69.131256,-13.762501,146.5676,-29.540916,0.5013077,0.18449314,0.17601351,0.6755758,0.691794,984.436
1747655988488,-0.23688944,3.952943,5.1756754,0.10690133,-0.18616104,-0.11522437,10.575001,-69.1125,-13.762501,146.75911,-29.603144,0.2124453,0.18440777,0.17720267,0.6744974,0.69256496,984.40155
1747655988509,0.25124636,3.8835511,5.123033,0.08552107,-0.22098033,-0.09262237,10.96875,-69.15,-13.856251,146.93822,-29.776764,0.37865695,0.1864121,0.17685173,0.6732025,0.6933775,984.40155
1747655988531,0.30149564,4.082155,6.0490556,0.028710645,-0.027947064,-0.1146135,10.89375,-69.168755,-13.81875,147.06842,-29.8659,0.50098205,0.18800707,0.17643853,0.67187005,0.6943438,984.36566
1747655988553,-0.062213387,4.331009,7.1784678,0.14844014,-0.076816246,-0.074907295,10.8,-68.756256,-13.650001,147.20522,-29.922804,0.47328472,0.1884333,0.17684524,0.6710022,0.6949638,984.36566
1747655988574,0.07178468,4.599005,7.1976104,0.40439248,-0.28939718,0.013057235,10.6875,-68.756256,-13.63125,147.29263,-30.114923,0.5318159,0.19078496,0.17751856,0.6700357,0.6950831,984.3432
1747655988596,0.526421,4.95075,6.762117,0.49174616,-0.51419544,0.07047852,10.63125,-68.83125,-13.63125,147.26225,-30.85885,1.1642456,0.19797567,0.17798172,0.66842014,0.6945089,984.3234
1747655988617,1.052842,5.5130634,7.9944205,0.4007273,-0.2838994,0.09369139,10.81875,-69.037506,-14.1,147.18057,-31.39768,1.7863196,0.20608385,0.1775835,0.6669383,0.6936763,984.3234
1747655988639,1.0624132,6.195018,8.738588,0.32864526,0.117438756,0.07903063,10.59375,-69.262505,-14.343751,147.06174,-31.848236,2.1622803,0.20997569,0.1787624,0.6666081,0.6925229,984.3234
1747655988660,0.63888365,6.7262244,9.176475,0.28405213,0.12721258,0.008781182,10.5375,-69.4875,-14.625001,146.9154,-32.308086,2.066041,0.21150796,0.18255295,0.6668607,0.6908224,984.3234
1747655988681,0.5694918,7.1186476,9.363115,0.25106543,-0.3254382,-0.037644543,10.33125,-69.375,-14.3625,146.89465,-32.643414,2.0350797,0.21388197,0.18412285,0.6661565,0.6903541,984.3398
1747655988704,0.57427746,7.1688967,9.473185,-0.064140804,-0.16050471,-0.1268308,10.14375,-69.75,-13.89375,147.04303,-32.9659,2.4847622,0.21776192,0.1829669,0.66430247,0.6912345,984.3398
1747655988727,-0.038285162,7.204789,10.423136,-0.46608981,0.41798422,-0.10300707,9.84375,-69.80625,-13.25625,147.19827,-32.74424,2.290189,0.21559437,0.1825056,0.66401017,0.69231594,984.36664
1747655988748,-0.1268196,6.876972,12.349358,-0.54733485,0.39171705,-0.0816268,9.69375,-69.95625,-13.387501,147.30115,-32.183792,1.7006485,0.20906828,0.18249638,0.66517085,0.6932051,984.36664
1747655988770,0.023928227,5.831309,13.351951,-0.2498437,-0.09758565,-0.09812015,9.31875,-69.975006,-13.950001,147.40446,-31.61443,1.3238548,0.20237531,0.18006608,0.6660322,0.69499755,984.39667
1747655988792,-0.33499518,5.2331033,12.234502,-0.02932151,-0.09636392,-0.07918335,9.356251,-69.731255,-14.212501,147.54585,-31.271599,1.3210098,0.20162016,0.17825603,0.66548705,0.6962048,984.39667
1747655988814,-0.15792629,4.7162533,10.066605,-0.06597339,-0.08170316,-0.084070265,9.50625,-69.600006,-15.168751,147.74397,-31.116434,1.3720002,0.20145245,0.17742652,0.664831,0.6970915,984.4194
1747655988835,-0.53359944,4.4147577,9.209974,-0.17592905,-0.063377224,-0.077961616,9.375,-69.675,-15.093751,147.80763,-31.052513,1.381794,0.20101438,0.17656435,0.66441417,0.69783384,984.4194
1747655988858,-0.40677986,3.9553359,8.078169,-0.31703883,0.050854493,0.023441937,9.262501,-69.543755,-15.187501,147.9308,-30.662956,1.3566893,0.19830571,0.1740885,0.66461104,0.6990423,984.424
1747655988879,-0.05742774,3.7950168,7.54457,-0.34636033,0.2102902,0.055206906,9.1875,-69.24375,-15.20625,147.90125,-30.279158,1.2660533,0.19513476,0.17258413,0.6656888,0.69928217,984.4172
1747655988901,0.22492532,3.7758741,7.1018977,-0.20341797,0.36361727,0.107741274,9.1875,-69.3375,-15.281251,147.81395,-29.894314,1.0366384,0.19036098,0.17230718,0.6676964,0.69875205,984.4172
1747655988923,-0.023928227,3.9050865,6.1328044,0.07147118,0.27748534,0.075976305,9.900001,-69.01875,-15.750001,147.60385,-29.630436,0.54428285,0.18749832,0.17391889,0.669188,0.69769907,984.39325
1747655988945,-0.32542387,3.8691943,5.1613183,0.21746786,-0.0707076,0.08086322,9.993751,-68.943756,-15.88125,147.52309,-29.730766,0.40689433,0.18757576,0.17579232,0.6697261,0.6966917,984.39325
1747655988967,0.17228323,3.926622,5.2689953,0.18509203,-0.37919432,0.068035066,10.181251,-69.0,-16.35,147.37547,-30.119894,0.80873954,0.19165462,0.17556472,0.66938746,0.6959641,984.361
1747655988989,0.33020952,3.8668015,6.364908,0.19364414,-0.3339903,0.010002911,9.8625,-69.412506,-16.181252,147.34254,-30.336876,1.2590553,0.19550705,0.17420062,0.668623,0.6959701,984.361
1747655989011,0.30388847,4.168297,6.8171515,0.29932374,-0.14156792,-0.02481638,9.50625,-69.43125,-16.368752,147.35356,-30.58219,1.581225,0.19960143,0.1738641,0.66749316,0.6959766,984.342
1747655989032,-0.2632105,4.7952166,6.3601227,0.35674503,0.06368265,-0.05413789,9.168751,-69.4875,-16.2,147.40982,-31.149044,1.6579168,0.20278718,0.17647718,0.6663281,0.69551426,984.342
1747655989053,-0.7322037,5.2833524,6.546763,0.2602284,0.012370012,-0.023594651,9.0,-69.675,-15.8625,147.4601,-31.535093,1.5221404,0.20442343,0.1794476,0.6655124,0.695056,984.3403
1747655989075,-0.54317075,5.625526,7.3627152,0.194255,-0.16050471,0.029550584,8.962501,-69.637505,-15.843751,147.47028,-31.692215,1.5020128,0.20633663,0.18101227,0.6648744,0.6946955,984.3403
1747655989099,0.18903299,5.7403817,9.454042,0.16676609,-0.22464553,0.10957387,8.90625,-69.84375,-15.525001,147.39088,-32.083317,1.9068857,0.21052973,0.1802935,0.6643057,0.69416815,984.342
1747655989120,0.5814559,5.76431,10.001999,0.07269291,-0.08659008,0.15661046,8.868751,-69.9,-15.337501,147.25319,-32.24293,2.2128844,0.21271995,0.17970888,0.6646063,0.6933639,984.36395
1747655989142,0.7322037,6.245267,10.126426,-0.082466744,0.310472,0.05948296,8.7375,-69.95625,-15.225,146.99344,-32.239815,2.2801018,0.2122524,0.17992336,0.6659809,0.69213146,984.36395
1747655989164,-0.73459655,6.829116,10.547563,-0.2254091,0.22739442,-0.008933897,8.53125,-69.99375,-15.337501,146.94951,-32.078587,1.9196544,0.20916617,0.18118232,0.66703343,0.6917289,984.3879
1747655989186,-1.2251252,6.8195443,11.686545,-0.20586143,-0.24113888,0.07108939,8.4375,-70.14375,-15.825001,146.94872,-31.833672,1.7835639,0.20694193,0.18052527,0.66758543,0.6920371,984.3879
1747655989209,0.32542387,5.871987,12.08854,-0.21074834,-0.4714349,0.20853396,8.2875,-70.3125,-16.237501,146.85312,-31.604183,2.1947262,0.2082581,0.17569973,0.66806763,0.6924188,984.4086
1747655989230,2.2588246,4.938786,13.55534,-0.18509203,-0.27351472,0.1437823,8.34375,-69.80625,-16.5,146.59323,-31.239552,2.9564116,0.20974863,0.16959788,0.66932017,0.6922807,984.4086
1747655989252,2.5986054,4.369294,13.490734,0.19730933,-0.14645483,-0.057192214,8.212501,-69.95625,-16.63125,146.47987,-31.005497,3.3431227,0.21051417,0.1668987,0.66969633,0.6923405,984.4338
1747655989274,1.672583,4.4458647,10.554741,0.48808095,-0.31932956,-0.1494328,8.043751,-69.9375,-17.04375,146.64005,-31.372438,3.6698859,0.21443859,0.16730464,0.66791505,0.69275886,984.4506
1747655989296,1.8568304,4.56072,7.580462,0.33719736,-0.48670653,-0.20624322,8.00625,-70.36875,-17.025002,146.84161,-31.87986,4.0655956,0.22136368,0.16748442,0.664595,0.69372946,984.4506
1747655989318,1.835295,4.5224347,6.350551,-0.018325943,-0.35353798,-0.29726207,7.65,-70.6125,-17.025002,147.13461,-32.18578,4.476482,0.22452612,0.16648187,0.6624401,0.69501436,984.4272
1747655989339,1.0911272,4.182654,6.367301,-0.5858193,0.10827578,-0.37545276,7.4812503,-70.4625,-17.1375,147.56026,-32.03712,4.5673747,0.22392268,0.16363336,0.65958244,0.69859415,984.4272
1747655989361,0.3469593,3.9074793,7.4656067,-0.7330377,0.37949973,-0.34979644,7.65,-70.443756,-17.475,148.05246,-31.421675,4.170924,0.21573055,0.1611538,0.65840834,0.702843,984.383
1747655989382,-0.3062813,3.7208393,7.920243,-0.43432486,0.36239552,-0.2850448,7.6875005,-69.99375,-17.90625,148.71481,-30.316471,3.1578557,0.20811826,0.16036507,0.65801144,0.7056847,984.383
1747655989404,-0.5694918,3.6681972,7.3627152,-0.019547673,0.16264275,-0.18730642,7.9500003,-69.787506,-18.0375,148.96667,-30.016363,2.730907,0.20347257,0.16100691,0.6573489,0.7075084,984.3642
1747655989425,-0.7322037,3.6729827,5.613562,0.2858847,0.053908817,-0.035201084,8.475,-69.525,-18.28125,149.24168,-30.141417,2.3390942,0.20318422,0.1633466,0.656164,0.7081545,984.3642
1747655989447,-0.4235296,4.0295134,5.1326046,0.28954992,0.1339321,0.07903063,8.418751,-69.356255,-18.243752,149.22975,-30.478186,2.231344,0.20496038,0.16667034,0.6558302,0.70717674,984.3376
1747655989468,-0.069391854,4.316652,5.218746,0.25778493,0.11804962,0.13461933,8.85,-69.05625,-18.206251,149.09822,-30.81323,2.13069,0.20591964,0.16873991,0.6561505,0.70610934,984.3376
1747655989490,0.8039884,4.8047876,5.9437714,0.30054548,0.043524116,0.09674571,8.981251,-68.90625,-18.075,148.90596,-31.117762,2.12389,0.20847058,0.17183742,0.65701586,0.7038054,984.32025
1747655989512,0.3397808,5.252246,5.656633,0.32192573,0.04046979,0.077198036,8.925,-69.168755,-17.681252,148.75534,-31.467457,2.1666024,0.21073999,0.17413671,0.65710306,0.70248175,984.32025
1747655989534,0.3804588,5.733203,6.101698,0.2877173,-0.12751803,0.14805835,8.4375,-69.318756,-17.475,148.5004,-32.137638,2.3183568,0.21412419,0.17638323,0.6572386,0.700769,984.29926
1747655989556,0.91884387,6.276374,7.092326,0.31520623,-0.25641048,0.1437823,8.325001,-69.675,-17.04375,148.30646,-32.507057,2.634765,0.2178359,0.17700459,0.6572963,0.6994129,984.2939
1747655989579,1.3016955,6.855437,8.367701,0.24556763,-0.31932956,0.12545635,8.38125,-69.506256,-16.800001,148.12697,-32.876144,3.0924075,0.22346538,0.1765934,0.65697753,0.69803905,984.2939
1747655989600,1.3495519,7.2287173,10.066605,0.07086031,-0.19837834,0.09674571,8.325001,-69.8625,-16.85625,147.97809,-33.138226,3.5441399,0.22688422,0.1756684,0.65681547,0.6973217,984.3012
1747655989623,2.3784657,7.2789664,12.098111,-0.068416856,-0.16844596,0.003894263,7.8375,-70.668755,-16.556252,147.82892,-33.195213,4.009645,0.22893286,0.17380686,0.65695316,0.6969888,984.3012
1747655989645,2.4741786,7.140183,12.904492,-0.07941242,0.14004076,-0.26122105,7.6125,-70.818756,-16.800001,147.92659,-33.09695,4.113595,0.2290571,0.17244719,0.6564747,0.69773614,984.3383
1747655989666,0.02871387,6.8339014,12.193824,-0.12217296,0.5328268,-0.3229184,7.55625,-71.100006,-16.9125,148.39766,-32.965206,3.4222066,0.2250853,0.17488305,0.6549861,0.6998184,984.3383
1747655989688,-0.35174492,6.3338017,12.60539,-0.100181825,0.54932016,-0.20929754,7.89375,-70.537506,-17.04375,148.71245,-32.80707,2.5729225,0.21986699,0.17841606,0.65460116,0.7009447,984.39545
1747655989709,-0.53359944,5.697311,12.1866455,0.11484258,0.3367392,-0.1702022,8.6625,-70.275,-17.4375,148.92781,-32.74107,1.8816622,0.21593454,0.18176194,0.65441775,0.7014787,984.39545
1747655989731,-1.4213367,5.3742795,10.057034,0.20708317,0.006872229,-0.11094832,8.775001,-70.2375,-17.0625,149.126,-32.877758,1.445631,0.21468328,0.18538329,0.6533115,0.7019461,984.42914
1747655989752,-0.76331043,4.6803613,8.886943,-0.047647454,-0.17150028,-0.00160352,9.13125,-70.350006,-17.081251,149.27026,-33.058228,1.3306365,0.21577877,0.18588915,0.6522295,0.7024823,984.42914
1747655989774,-0.069391854,4.316652,8.743374,-0.3347539,0.037415467,0.0032833982,9.3,-70.59375,-16.518751,149.31387,-32.85456,1.4799877,0.21501304,0.1840769,0.65236497,0.7030683,984.43964
1747655989796,-0.019142581,4.130012,8.645268,-0.456316,0.17241658,-3.8179048E-4,9.450001,-70.481255,-16.40625,149.31775,-32.646763,1.4448006,0.2115627,0.1821374,0.6532905,0.7037604,984.43964
1747655989818,-0.21774685,3.7016966,8.396415,-0.34758207,0.24083345,0.022831071,9.618751,-70.200005,-16.7625,149.3164,-31.733862,1.06082,0.20583184,0.1801553,0.65486884,0.7045027,984.4333
1747655989839,-0.5024927,3.505485,7.298109,-0.043371398,0.28176138,0.09063706,9.4125,-70.0875,-16.800001,149.2604,-31.402885,0.78998,0.20155987,0.18025541,0.6564616,0.7042299,984.4213
1747655989861,-0.8470592,3.4911282,5.6063833,0.22418737,0.1669188,0.21525347,9.58125,-69.99375,-17.025002,149.11249,-31.389238,0.54773456,0.20049475,0.18218999,0.65772635,0.7028547,984.4213
1747655989884,-0.29910284,3.400201,4.465007,0.28832817,0.08811724,0.28122687,9.5625,-69.95625,-16.931252,148.83012,-31.635746,0.48496115,0.2016368,0.18446259,0.6591559,0.70059234,984.38983
1747655989905,-0.02871387,3.2542388,4.1850467,0.24617851,-0.09392046,0.22563818,9.46875,-70.36875,-16.59375,148.31737,-32.11826,0.6621427,0.20434621,0.18653318,0.6608181,0.69768727,984.38983
1747655989926,-0.72023964,3.3930225,4.8765726,0.18997894,-0.1989892,0.18409938,9.675,-70.106255,-16.5,148.06273,-32.384026,0.95666564,0.20793879,0.18670484,0.66159225,0.69584376,984.3581
1747655989948,-1.2753744,3.7615173,5.505885,0.109344795,-0.029168794,0.29710937,9.168751,-70.481255,-16.462502,147.7463,-32.610703,1.3257,0.21016827,0.18645681,0.66244507,0.69442755,984.3581
1747655989971,-0.53359944,4.5296135,6.0490556,0.050090913,0.16386448,0.41011935,8.868751,-70.89375,-16.575,147.29875,-32.69744,1.4500813,0.21065353,0.18725653,0.66548777,0.69114834,984.33
1747655989992,-0.10767702,5.070391,6.8889365,0.06597339,-0.10002911,0.38873908,8.8125,-70.950005,-16.893751,146.77484,-32.758614,1.5604042,0.21110709,0.18763463,0.6682289,0.68825656,984.33
1747655990015,0.55752766,6.1304116,8.733803,0.11056653,-0.4415025,0.30627233,8.587501,-71.3625,-16.7625,146.0911,-32.889275,2.2872758,0.2146634,0.18545447,0.670399,0.6856321,984.3112
1747655990037,1.2658032,6.465407,9.705289,0.083688475,-0.44516772,0.14011711,8.681251,-71.30625,-17.00625,145.7812,-33.013737,2.9926405,0.21995907,0.18196759,0.6710107,0.68428826,984.31805
1747655990059,0.44985065,6.4797635,10.614561,-0.054366965,-0.1311832,0.061926417,8.3625,-71.475006,-16.81875,145.66043,-33.07479,3.5539432,0.22273512,0.17951131,0.6707712,0.68427384,984.31805
1747655990080,0.45224348,6.8195443,11.516655,-0.16798781,0.18524474,0.12179117,8.025001,-71.775,-16.987501,145.58961,-32.99134,3.719724,0.22177628,0.17851752,0.671759,0.6838762,984.3393
1747655990101,0.98584294,7.2933235,12.959527,-0.046425723,0.064904384,0.07903063,7.70625,-72.075005,-16.96875,145.37584,-32.70404,3.5647447,0.21977553,0.17825942,0.6731717,0.68319994,984.3393
1747655990123,1.1988041,7.0325055,12.454642,0.28160867,-0.19349141,0.042989608,7.7250004,-71.7375,-16.837502,145.2803,-32.779785,3.681288,0.22072658,0.17823678,0.67347914,0.682596,984.3735
1747655990145,1.9405792,6.664011,11.038091,0.36835146,-0.3999637,-0.010766491,7.4812503,-71.700005,-17.081251,145.25168,-33.135086,4.0682178,0.224957,0.17820556,0.67247474,0.6822131,984.3735
1747655990166,2.806781,5.962914,10.600204,0.2516763,-0.28512114,-0.1598175,7.425,-71.775,-16.81875,145.33136,-33.480743,4.521607,0.2296608,0.17753378,0.6707555,0.68251354,984.3991
1747655990187,2.309074,5.6446686,9.272188,0.16615522,0.012370012,-0.2966512,7.6875005,-71.8125,-16.95,145.58063,-33.72619,4.6570964,0.2322089,0.17776887,0.6687237,0.6835831,984.3991
1747655990210,1.5960127,5.2283173,7.570891,-0.21930045,-0.018784093,-0.34429866,7.4437504,-72.39375,-17.025002,145.95932,-33.842743,4.43133,0.23184049,0.17909285,0.66619,0.68583286,984.4047
1747655990232,1.4787644,4.5631127,9.327223,-0.34697118,-0.28023422,-0.40416342,7.51875,-72.693756,-16.650002,146.4139,-33.620155,4.246969,0.22974007,0.17621703,0.6634828,0.6898969,984.4047
1747655990256,0.62452674,4.125226,8.130812,-0.20097451,-0.1800524,-0.39133525,7.65,-72.318756,-16.7625,147.38348,-33.03045,4.2369065,0.22845836,0.17251632,0.6600365,0.69454783,984.383
1747655990278,-0.023928227,4.206582,6.9535427,-0.21563527,-0.027336199,-0.29115343,7.3875003,-71.943756,-16.987501,147.87157,-32.814384,4.1144376,0.22721763,0.17099667,0.657664,0.6975746,984.36957
1747655990299,-0.023928227,4.24726,6.3864436,-0.2131918,0.13087778,-0.20624322,7.5375004,-71.2125,-17.268751,148.21873,-32.58681,3.870349,0.2243516,0.17040408,0.6560884,0.7001263,984.36957
1747655990321,-0.11006984,4.2975097,6.017949,-0.15332706,0.11438443,-0.1494328,7.70625,-70.96875,-17.25,148.4728,-32.37713,3.5592177,0.22124977,0.17067781,0.65526843,0.7018126,984.35223
1747655990343,-0.1363909,4.254439,6.053841,-0.0018325944,0.081397735,-0.09995275,8.25,-70.5,-17.212502,148.74393,-32.198204,3.2020056,0.21973619,0.17108952,0.65469867,0.702719,984.35223
1747655990364,0.083748795,4.4051867,5.575277,0.07147118,0.12049308,-0.06024654,8.85,-70.256256,-17.2875,148.8024,-32.210167,3.114131,0.21923152,0.17225982,0.65423465,0.7030228,984.33295
1747655990386,0.6412765,4.761717,6.175875,0.09040799,0.12782346,-0.06696605,9.806251,-70.200005,-17.775002,148.91014,-32.386593,2.7916467,0.21883549,0.17431429,0.6539055,0.70294607,984.33295
1747655990408,0.7968099,4.9986067,6.582655,0.1753182,0.10033454,-0.1042288,9.69375,-69.9,-17.79375,148.99065,-32.54547,2.6169217,0.21905832,0.17662404,0.65321594,0.7029412,984.3112
1747655990431,0.6029913,5.178068,6.391229,0.16982041,0.12538,-0.10483967,9.69375,-69.9375,-18.018751,149.10272,-32.76718,2.4478183,0.2195036,0.17822301,0.652585,0.7029847,984.3112
1747655990454,0.5240282,5.2163534,7.2382884,0.074525505,0.19074252,-0.0297033,9.375,-69.8625,-17.23125,149.21837,-33.01212,2.1219566,0.21935152,0.18136904,0.6519176,0.7028468,984.30975
1747655990475,0.45702913,5.419743,8.549556,0.14355323,0.13332124,0.049709123,9.65625,-70.14375,-16.96875,149.20573,-33.119587,1.9286788,0.21890385,0.18317308,0.6520949,0.7023539,984.31
1747655990497,0.55752766,6.02752,9.276974,0.25534147,0.034361143,0.12667808,10.125,-70.275,-16.556252,149.1006,-33.309322,1.8664464,0.21988268,0.18528488,0.65263736,0.70098907,984.31
1747655990518,0.60059845,6.532406,9.781859,0.20158538,-0.06887501,0.13889538,10.40625,-70.537506,-16.368752,148.93044,-33.57376,1.9468944,0.22182393,0.18639542,0.6531032,0.6996479,984.3205
1747655990540,0.66759753,6.5754766,11.394622,0.18448116,-0.15439607,0.10713041,10.35,-70.6875,-16.35,148.72313,-33.827034,2.2061806,0.22448339,0.18648602,0.65348774,0.6984153,984.3205
1747655990561,0.4953143,6.728617,11.3371935,0.252898,0.044745844,0.13889538,10.1625,-70.6875,-16.275002,148.58653,-34.02347,2.4443703,0.22666582,0.1868207,0.65373147,0.69739217,984.3337
1747655990583,0.50009996,7.3459654,9.7196455,0.02565632,0.31230462,0.16027565,9.6,-70.856255,-15.95625,148.25517,-34.315468,2.3473718,0.22685267,0.18950291,0.6552692,0.695161,984.3337
1747655990604,0.5288138,7.1976104,9.8321085,-0.23640467,0.20418155,0.058261227,9.46875,-71.100006,-16.087502,148.1489,-34.30258,2.2374442,0.22541647,0.19043775,0.65646297,0.6942458,984.3681
1747655990626,-0.031106694,6.0251274,10.892129,-0.38912088,0.29825473,-0.07002038,10.03125,-70.912506,-16.21875,148.08424,-33.830048,1.9401033,0.22027415,0.18921603,0.6579898,0.6947849,984.3681
1747655990647,-1.2131611,5.5704913,9.954143,-0.3420843,0.53221595,-0.05413789,10.387501,-70.70625,-16.181252,148.16563,-33.38441,1.470126,0.21469392,0.18979384,0.65905094,0.695368,984.3754
1747655990668,-1.4787644,5.2546387,8.571091,-0.34574947,0.23777911,0.089415334,10.89375,-70.51875,-16.275002,148.16763,-32.890186,0.6995632,0.20778506,0.19114709,0.6610287,0.69521886,984.3754
1747655990690,-1.2227324,4.8382874,8.255239,-0.3817905,-0.1385136,0.16210824,11.26875,-70.425,-16.125,148.04161,-32.49192,0.55565226,0.20550574,0.18987784,0.66218364,0.6951451,984.38153
1747655990713,-0.27756742,4.3740797,7.9274216,-0.48502663,-0.21548255,0.19692753,11.25,-70.425,-16.3875,147.84444,-32.035423,0.8561921,0.20381996,0.18455923,0.66410184,0.69524384,984.38153
1747655990734,0.0526421,3.8644085,7.865208,-0.5888736,-0.06704241,0.22319472,11.043751,-70.2375,-16.575,147.62213,-31.471903,1.1952634,0.20161405,0.17963941,0.66606885,0.69529396,984.37714
1747655990756,0.41635114,3.3906298,8.12124,-0.49174616,0.11194097,0.26412266,10.856251,-69.975006,-16.837502,147.20897,-30.465618,1.4506258,0.19708313,0.17415395,0.6693534,0.6948343,984.3708
1747655990779,0.2416751,3.2183464,7.0372915,-0.15760311,0.26465717,0.28550294,10.96875,-69.7125,-17.268751,146.87923,-29.969524,1.451071,0.1928853,0.1716187,0.6728836,0.6932315,984.3708
1747655990801,0.22731815,3.3643086,5.395815,-6.108648E-4,0.14981459,0.31299183,10.78125,-69.58125,-17.19375,146.51172,-29.778557,1.351989,0.19104291,0.17206044,0.6755143,0.6910704,984.362
1747655990823,0.8877372,3.4863427,4.7545385,-0.20097451,-0.060322896,0.24274239,10.40625,-69.543755,-17.268751,145.94032,-29.709137,1.5081561,0.19090554,0.17097561,0.6786905,0.6882599,984.362
1747655990845,0.29910284,3.2446675,7.1018977,-0.24129158,-0.11041381,0.12606722,10.25625,-69.637505,-17.41875,145.73766,-29.530224,1.683805,0.19043846,0.16904508,0.67983645,0.6877349,984.3437
1747655990867,-0.37806597,3.4504502,7.879565,0.15577053,-4.581486E-4,0.18593197,10.05,-69.58125,-17.325,145.50838,-29.23488,1.9778781,0.1904493,0.16659574,0.68123204,0.68694824,984.3437
1747655990889,-0.47138608,4.3764725,6.8099732,0.365908,0.013591741,0.25190535,10.51875,-69.506256,-17.15625,145.26212,-29.43507,2.0664928,0.19217905,0.16823785,0.6822858,0.68501776,984.3315
1747655990910,-0.17467605,5.4388857,6.8410797,0.2828304,-0.2283107,0.27145302,10.856251,-69.543755,-17.081251,144.93309,-29.835186,2.2367892,0.19538793,0.16986825,0.6832866,0.68270624,984.3315
1747655990934,0.51445687,5.790631,8.539984,0.23457208,-0.2924515,0.18104506,11.25,-69.543755,-17.587502,144.46927,-30.303972,2.8955114,0.20043054,0.16940616,0.6840449,0.68059665,984.32367
1747655990956,0.3900301,6.0897336,8.709874,0.17898338,-0.20570871,0.1645517,11.26875,-69.4875,-17.325,144.36082,-30.438066,3.1179855,0.20406006,0.16890955,0.68423074,0.67945373,984.32367
1747655990977,1.7228323,6.4175506,10.1599245,-0.15210533,-0.082924895,0.09063706,11.00625,-69.918755,-17.587502,144.01144,-30.642012,3.6585193,0.20622507,0.16782026,0.685046,0.67824745,984.3173
1747655990999,1.4596218,6.795616,11.736795,-0.13255766,0.11255184,-0.11094832,10.368751,-70.162506,-17.71875,143.97766,-30.464443,3.7243183,0.20552665,0.16642408,0.68549603,0.6783487,984.3283
1747655991021,0.05742774,7.0205417,11.315659,-0.08124501,-0.0059559317,-0.19219333,10.481251,-70.18125,-17.362501,144.15666,-30.362627,3.5037906,0.20357658,0.16690128,0.68469226,0.6796301,984.3283
1747655991042,0.23688944,6.869794,11.75833,-0.17898338,-0.17150028,-0.09628756,10.63125,-69.9375,-17.550001,144.47844,-30.21571,3.3919737,0.20286006,0.16594064,0.6833939,0.68138415,984.35077
1747655991063,1.564906,6.13759,12.8518505,-0.18814635,-0.20876303,-0.115835235,11.1,-69.525,-17.8875,144.61671,-29.994137,3.5708938,0.20281878,0.16330035,0.6826907,0.6827379,984.35077
1747655991084,1.8592232,5.178068,13.036098,-0.09529491,0.091782436,-0.25266895,11.1,-69.1875,-17.775002,144.82693,-29.780148,3.6550627,0.20199491,0.1609851,0.68145764,0.6847608,984.3969
1747655991106,0.73459655,4.493721,12.253645,0.067195125,0.48579022,-0.26427537,10.89375,-69.20625,-18.018751,145.22906,-29.659027,3.1705115,0.19932826,0.16260538,0.68037,0.68623936,984.3969
1747655991126,-0.43070808,4.4721856,9.79143,0.27244568,0.4424188,-0.108504854,10.462501,-69.356255,-17.8875,145.463,-29.79208,2.4484556,0.19620731,0.16727746,0.6798136,0.6865671,984.4316
1747655991148,-0.31345975,4.634897,7.9680996,0.29260424,0.102778,0.047876526,10.89375,-69.1875,-17.643751,145.51343,-30.088026,2.0221727,0.19553946,0.17148066,0.67960346,0.68592846,984.4316
1747655991169,1.1078769,4.883751,6.209375,0.12522727,-0.19226968,0.046654798,11.0625,-69.225006,-17.8875,145.42169,-30.388092,2.0393274,0.1978964,0.17340894,0.67958623,0.6847838,984.4279
1747655991193,1.8065811,4.615755,6.0418773,-0.18448116,-0.28451028,-0.15004367,11.55,-69.01875,-18.018751,145.44215,-30.49677,2.4534464,0.20036608,0.17152105,0.6787492,0.68537104,984.4279
1747655991214,1.3854443,3.9888353,6.977471,-0.36651886,-0.043218683,-0.2587776,11.493751,-69.0,-18.018751,145.55937,-30.386246,2.5620496,0.19985406,0.16862343,0.6774582,0.6875135,984.39325
1747655991237,0.014356935,3.5700915,7.585248,-0.2773326,0.2848157,-0.18730642,11.325001,-68.83125,-18.35625,146.03369,-29.821056,2.325767,0.19543952,0.16721812,0.6764767,0.6900875,984.3598
1747655991258,-0.16031912,3.6681972,7.4416785,0.022601997,0.2921461,-0.037644543,11.587501,-68.756256,-18.206251,146.25328,-29.506535,1.7743042,0.19107799,0.16872281,0.676594,0.6908273,984.3598
1747655991280,0.31345975,4.0534415,6.3218374,0.25045455,-0.016951498,0.0026725335,11.75625,-68.5875,-18.112501,146.27443,-29.572712,1.4763334,0.19062722,0.17084567,0.67664623,0.69037884,984.3483
1747655991301,0.41874397,4.3070807,5.558527,0.25656322,-0.1678351,-0.008933897,11.925,-68.55,-18.13125,146.26784,-29.858822,1.5146472,0.1930843,0.17207022,0.6760073,0.6900177,984.3483
1747655991322,0.54317075,4.5822554,5.2666025,0.092851445,0.0013744457,0.025885396,12.168751,-68.68125,-17.8875,146.27174,-30.154114,1.6932685,0.1955832,0.17270383,0.67536855,0.6897811,984.32904
1747655991345,0.9834501,4.718646,5.5968122,-0.124616414,0.34468046,0.05948296,12.281251,-68.381256,-17.775002,146.17104,-30.271666,1.6070567,0.19462472,0.17427088,0.6762483,0.6887954,984.32904
1747655991366,1.7515461,4.843073,6.3361945,-0.20158538,0.35873035,-0.09812015,12.01875,-68.700005,-17.75625,146.09276,-30.14701,1.2675999,0.19151422,0.17562118,0.67725986,0.6883303,984.3173
1747655991387,0.8925229,4.8646083,7.0396843,-0.18875721,0.24633121,-0.29970554,11.681251,-68.662506,-17.306252,146.31325,-29.910238,0.72983515,0.18813549,0.1767381,0.67690676,0.6893228,984.3173
1747655991409,-0.89730847,4.7952166,8.827123,0.01527162,-0.0035124724,-0.2154062,11.7375,-68.700005,-17.0625,146.67824,-29.773174,0.38457963,0.18565151,0.17750922,0.6749691,0.69169414,984.3139
1747655991431,-1.2562319,4.9579287,9.506684,0.3121519,-0.029779658,0.08697187,11.71875,-68.606255,-16.556252,146.89,-29.83972,0.2610669,0.18624836,0.17851546,0.6739944,0.6922249,984.3139
1747655991452,-0.39720857,5.7284174,9.030513,0.44654214,-0.24846925,0.26962045,11.90625,-68.5875,-16.29375,146.77827,-30.182117,0.33226305,0.1892066,0.18032816,0.6742382,0.6907137,984.3298
1747655991473,1.6390835,6.640083,9.523434,0.21258095,-0.7127265,0.105908684,12.225,-68.662506,-16.25625,146.35709,-30.86416,1.2103599,0.19672629,0.17944787,0.67433584,0.68874407,984.3481
1747655991494,1.7228323,6.613762,11.090733,-0.10262528,-0.5673407,-0.124998204,12.150001,-68.7375,-16.2,146.31697,-30.979204,1.6580689,0.20227681,0.17528465,0.6729927,0.68952173,984.3481
1747655991515,0.10289137,6.290731,13.3687,-0.2547306,0.24022257,-0.08773545,11.45625,-69.318756,-16.06875,146.57275,-30.76363,2.2900546,0.20191766,0.17192617,0.67180777,0.6916249,984.3759
1747655991537,-0.17467605,6.3481584,13.584054,-0.126449,0.23838998,0.017333288,11.475,-69.168755,-16.143751,146.65056,-30.404062,1.8358345,0.19801825,0.1725434,0.67259574,0.69183266,984.3759
1747655991559,-0.34456646,5.977271,12.933207,0.0537561,0.025809037,0.03199404,11.306251,-69.225006,-16.48125,146.62267,-30.278946,1.659732,0.19611746,0.17294681,0.6732969,0.6915914,984.4206
1747655991580,-1.1724831,5.771488,11.538191,0.18631376,0.029474225,0.08025236,11.00625,-69.4875,-16.725,146.58383,-30.329937,1.6277062,0.19642393,0.17375651,0.6734764,0.69112647,984.4206
1747655991650,0.17228323,4.1276193,8.0614195,-0.28405213,-0.12324197,0.069867656,10.81875,-70.200005,-16.368752,145.99184,-30.488756,2.0784118,0.19863077,0.17130567,0.67633677,0.68830866,984.4572
1747655991669,0.15074782,3.7184465,7.7886376,-0.33353218,0.011148282,0.027107125,10.875,-70.162506,-16.2,145.91478,-30.169424,2.2493722,0.19748612,0.16928102,0.67686063,0.6886239,984.4572
1747655991692,-0.29671,3.3212378,7.3866434,-0.24190246,0.2243401,0.092469655,10.25625,-70.200005,-16.1625,145.87857,-29.694496,2.1865957,0.19472149,0.16751193,0.6777774,0.688942,984.4428
1747655991713,-0.09332009,3.3930225,6.903293,-0.0061086477,0.116217025,0.21342088,9.731251,-70.575005,-16.125,145.64124,-29.3599,1.9510081,0.19101202,0.16729742,0.68006176,0.6877805,984.41815
1747655991735,0.57188463,3.6610186,5.0847483,0.074525505,-0.029779658,0.23357943,9.4125,-70.55625,-16.40625,145.34763,-29.418663,2.046016,0.19148894,0.16757898,0.6815964,0.68605804,984.41815
1747655991756,0.42592242,3.7304106,5.096712,-0.1178969,0.022754714,0.17921245,9.20625,-70.65,-16.237501,145.0765,-29.446985,2.2182484,0.19227389,0.16718717,0.68293166,0.68460464,984.3908
1747655991778,0.43070808,3.641876,6.108876,-0.17592905,0.19501857,0.15599959,9.168751,-70.293755,-16.0125,144.85454,-29.29135,2.2457852,0.19070306,0.1663555,0.6848881,0.68329096,984.3908
1747655991799,0.29192436,3.9338005,6.7812595,-0.04092794,0.15531237,0.116904244,8.71875,-70.03125,-15.843751,144.65668,-29.109259,2.1350548,0.1887976,0.1664021,0.68641365,0.6822772,984.36957
1747655991820,0.14596218,4.2975097,6.317052,0.14844014,0.13881902,0.116293386,8.231251,-70.012505,-15.712501,144.46422,-29.105145,2.0072765,0.1881543,0.16779085,0.6876034,0.68091536,984.36957
1747655991841,0.3469593,4.847859,5.3407803,0.07086031,0.023365578,0.074143715,7.7812505,-70.106255,-15.525001,144.2785,-29.333845,1.9272909,0.18873015,0.16952139,0.6882087,0.6797148,984.3674
1747655991863,0.83748794,5.2307105,6.943971,-0.21563527,-0.19410229,-0.057192214,7.6875005,-70.725006,-15.075001,144.23138,-29.320265,2.0760088,0.18947463,0.16863401,0.6882631,0.6796734,984.3674
1747655991884,0.5312066,5.345566,9.786645,-0.22174391,-0.023060145,-0.18119776,7.8,-70.55625,-14.906251,144.38556,-29.072697,2.169336,0.18880239,0.16632776,0.6876193,0.68107885,984.35345
1747655991906,-0.33020952,5.139783,10.73181,0.03604102,0.00320704,-0.15431972,7.7812505,-70.55625,-14.512501,144.6267,-28.936584,2.0218153,0.18747649,0.16597314,0.6866077,0.6825506,984.35345
1747655991927,0.485743,5.326423,10.336994,0.03848448,-0.076816246,-0.09445497,7.6125,-70.725006,-14.418751,144.78598,-28.98803,1.9624329,0.18782878,0.16637899,0.68545204,0.6835158,984.36176
1747655991949,0.076570325,5.5920267,10.624132,-0.09529491,-0.13790272,-0.11033745,7.4062505,-70.40625,-14.587501,144.9114,-29.008892,1.992135,0.18816255,0.16589625,0.6846353,0.68435943,984.36176
1747655991971,-0.8781659,6.058627,11.420942,-0.11056653,-0.22953244,0.069867656,7.05,-70.78125,-14.681251,145.06429,-28.863874,2.1246266,0.18839222,0.1636883,0.6839523,0.68550986,984.3864
1747655991992,0.3684947,6.2787666,11.550155,-0.07574723,-0.37980518,0.18287764,7.2937503,-70.668755,-15.225,144.96884,-28.740208,2.41656,0.18959635,0.16115162,0.6844598,0.6852724,984.3864
1747655992014,2.2037897,5.771488,12.052648,-0.04459313,-0.5441278,0.01244637,7.2187505,-70.631256,-15.13125,144.72078,-28.601229,3.2720234,0.19304071,0.15641153,0.6848408,0.6850283,984.4086
1747655992036,2.07697,5.2259245,11.997613,0.037262753,-0.3339903,-0.17569998,7.0312505,-70.36875,-15.20625,144.8132,-28.561062,3.839884,0.19555548,0.15342554,0.6840496,0.6857804,984.4086
1747655992058,0.72263247,4.7306104,10.552348,0.0012217296,-0.021227552,-0.19524765,6.3187504,-70.293755,-14.962501,145.06174,-28.585707,4.0062237,0.19771211,0.15142879,0.68159103,0.68805015,984.424
1747655992080,0.61016977,4.208975,10.04507,-0.05864302,-0.020616686,-0.1372155,5.6062503,-70.0875,-15.075001,145.29118,-28.556725,3.9108546,0.19707182,0.15138015,0.68056875,0.6892554,984.4306
1747655992101,0.94755775,3.900301,9.853643,0.01282816,-0.1800524,-0.18669555,5.4750004,-69.693756,-15.4125,145.47574,-28.474527,3.8563228,0.19686206,0.15046646,0.679274,0.69079083,984.4306
1747655992123,0.69152576,3.5365918,8.281559,0.12767074,-0.17150028,-0.19524765,5.4750004,-69.58125,-15.712501,145.89673,-28.53199,4.035101,0.19862024,0.14954472,0.6771076,0.6926123,984.4272
1747655992145,0.50488555,3.4169507,6.640083,-0.012217295,0.066126116,-0.17753258,5.775,-69.46875,-15.76875,146.1279,-28.622322,4.017565,0.19934925,0.14980051,0.6756123,0.6938067,984.4272
1747655992166,0.5072784,3.3547373,6.6329045,-0.22296564,0.29153523,-0.19341506,5.71875,-69.58125,-15.731251,146.34396,-28.512892,3.711643,0.19719774,0.15059794,0.674928,0.69491404,984.41425
1747655992188,-0.21535404,3.3906298,7.5996046,-0.12278382,0.14004076,-0.16042836,5.7375,-69.412506,-15.712501,146.57764,-28.279314,3.2977376,0.19370164,0.15127651,0.6744737,0.6961899,984.41425
1747655992210,-0.19621146,3.4672,7.1569324,0.1838703,-0.07131846,0.006948587,5.53125,-69.1875,-15.731251,146.72981,-28.22457,3.1201825,0.19273983,0.15190274,0.67375207,0.6970187,984.392
1747655992232,0.701097,3.8333018,6.1902323,0.31948227,-0.032223117,0.0674242,5.26875,-69.225006,-15.712501,146.71402,-28.42319,3.1858678,0.19532193,0.15330319,0.67350733,0.6962294,984.392
1747655992254,0.8255238,4.24726,5.056034,0.27183482,0.010537418,0.016111558,5.25,-69.412506,-15.88125,146.60057,-28.863083,3.295769,0.19777234,0.15524371,0.6733131,0.6952949,984.35394
1747655992276,0.83030945,4.5320063,5.2259245,0.032986697,0.017867794,0.011835505,4.9875,-69.75,-15.918751,146.5493,-29.223778,3.3124876,0.19939056,0.1568843,0.6730621,0.6947072,984.35394
1747655992298,1.3471591,4.615755,6.6305118,-0.046425723,0.087506376,-0.009544762,5.0625,-69.543755,-16.44375,146.52824,-29.241474,3.3138015,0.19935802,0.15704618,0.6731937,0.6945525,984.35394
1747655992320,1.294517,4.8358946,7.6570325,0.050090913,0.13454297,-0.05169443,5.2312503,-69.61875,-16.556252,146.53864,-29.233234,3.2196004,0.19889098,0.15751691,0.67325324,0.6945221,984.33636
1747655992341,0.9738788,5.089534,8.472985,0.3017672,-0.0029016077,-0.07246383,5.1937504,-69.43125,-16.1625,146.60709,-29.428633,3.067296,0.19967484,0.15998808,0.67256415,0.69439995,984.33636
1747655992363,0.45702913,5.7020965,8.41795,0.39645123,-0.02611447,-0.03459022,4.8187504,-69.80625,-15.731251,146.68042,-29.912859,3.0772254,0.20229764,0.16219793,0.6715375,0.69412166,984.3349
1747655992385,0.0741775,6.2285175,8.487342,0.22235478,0.07284562,0.0674242,4.4812503,-69.76875,-15.337501,146.67192,-30.339512,3.0675883,0.205154,0.16539206,0.67086434,0.69317985,984.3349
1747655992407,0.49052864,6.4965134,10.289138,0.067195125,-0.0707076,0.15172353,4.3875003,-70.05,-15.093751,146.50795,-30.595743,3.0822017,0.20615506,0.1665315,0.67135596,0.69213325,984.36664
1747655992430,1.8711873,6.570691,12.736995,0.09468404,-0.1452331,0.033215772,4.2937503,-70.012505,-14.981251,146.3409,-30.649273,3.3751855,0.20843236,0.16506281,0.67186785,0.69130594,984.36664
1747655992451,1.0695918,6.869794,12.636497,0.18936808,0.2451095,-0.05902481,4.2937503,-69.881256,-15.187501,146.30725,-30.737942,3.5436852,0.20934814,0.16553895,0.671691,0.6910872,984.392
1747655992473,-0.16271193,7.207182,10.734202,0.09651663,0.33735007,-0.020540329,4.05,-70.05,-15.093751,146.34726,-30.936594,3.2029836,0.20822985,0.16911171,0.6717367,0.6905152,984.392
1747655992495,0.6364908,6.151947,11.607583,-0.21624613,0.020922119,-0.06635518,4.1062503,-69.975006,-14.962501,146.37154,-30.984306,2.7696779,0.20606981,0.17071299,0.6720233,0.69049037,984.404
1747655992518,-0.4833502,5.319245,12.019148,-0.26389357,0.32268932,-0.09812015,4.18125,-70.21875,-14.306251,146.48425,-30.7138,2.6300476,0.203248,0.16994894,0.67206234,0.6914766,984.42084
1747655992539,-0.9882358,4.5822554,11.155339,-0.22418737,0.2707658,-0.016264275,3.8625002,-70.275,-14.2875,146.60953,-30.31124,2.0719008,0.19875664,0.17067428,0.6727159,0.6919677,984.42084
1747655992560,-1.0648061,4.208975,10.423136,-0.17592905,-0.10613775,0.035048366,4.0875,-69.881256,-14.45625,146.62656,-30.030334,1.8518676,0.19550988,0.16985136,0.6734552,0.692376,984.4191
1747655992583,-0.20578274,4.139583,9.056833,-0.20708317,-0.06398808,0.0881936,4.05,-69.693756,-15.056251,146.55643,-29.67083,2.0344567,0.19464596,0.16716753,0.67409945,0.69264555,984.4191
1747655992604,0.28235307,4.0414777,8.047063,-0.28221953,0.11255184,0.089415334,3.8437502,-69.600006,-15.262501,146.5091,-29.533575,2.0679283,0.19344586,0.16583547,0.67484397,0.69257694,984.393
1747655992627,0.65084773,3.6323047,7.4823565,-0.18814635,0.3159698,0.061926417,4.0875,-69.375,-15.4125,146.35205,-29.049389,1.866762,0.18881805,0.16487505,0.6769294,0.6920481,984.393
1747655992648,0.4019942,3.4504502,6.2715883,0.062308207,0.35628688,0.058261227,3.9750001,-69.375,-15.50625,146.26152,-28.872976,1.5513401,0.18603972,0.16633,0.6781257,0.69128084,984.3703
1747655992670,0.21774685,3.4480574,4.5224347,0.23212862,0.21884231,0.0655916,4.3500004,-68.925,-15.656251,146.16519,-28.952763,1.2135699,0.18488657,0.16999719,0.67905825,0.689781,984.3703
1747655992691,0.09810573,3.3164523,3.6753755,0.194255,-0.00962112,0.07170025,4.6312504,-69.09375,-15.843751,146.03835,-29.286003,0.99410886,0.18587083,0.17236039,0.6793145,0.6886768,984.3293
1747655992713,-0.083748795,3.397808,4.6779685,0.086742796,-0.21364996,0.102854356,4.70625,-69.20625,-15.95625,145.94081,-29.505075,1.1115842,0.18794012,0.1725279,0.6793309,0.6880568,984.3293
1747655992735,0.17706887,3.8476589,5.4963136,0.06536253,0.044134982,0.17432554,4.7250004,-69.1125,-16.125,145.71173,-29.66566,1.4776988,0.1901251,0.1718511,0.6799289,0.6870345,984.30585
1747655992757,0.55034924,4.395615,5.6685967,-0.0036651888,0.10155627,0.116293386,4.4437504,-69.28125,-16.0125,145.49905,-29.737694,1.4863771,0.19028896,0.17257902,0.6810551,0.6856898,984.29584
1747655992778,0.1698904,4.855037,7.3435726,-0.06352994,-0.1470657,-0.009544762,4.51875,-69.20625,-15.731251,145.3946,-29.728685,1.5177485,0.19039138,0.17222786,0.6816184,0.6851898,984.29584
1747655992799,-0.14117654,4.855037,8.807981,0.031154104,-0.1385136,0.022831071,4.3875003,-69.075005,-16.0125,145.40738,-29.680973,1.6832321,0.19123673,0.17091797,0.6813311,0.68556803,984.3107
1747655992820,-0.38285163,5.3312087,8.611769,0.16065744,0.041080657,0.09735657,4.14375,-69.28125,-15.806251,145.38329,-29.72458,1.8242635,0.19250534,0.17116426,0.681399,0.68508387,984.3107
1747655992842,-0.0023928226,6.0394845,8.762517,0.064140804,-0.22586726,0.098578304,3.825,-69.3375,-15.750001,145.23044,-29.93428,1.8655211,0.19370314,0.17195182,0.6818177,0.6841318,984.3339
1747655992864,0.4235296,6.273981,10.4016,-0.05070178,-0.51236284,0.020998476,3.4875002,-69.58125,-15.7875,145.11765,-30.003078,2.4792285,0.19714382,0.16893885,0.681411,0.6843048,984.3339
1747655992886,0.11964113,6.4558353,11.696117,-0.11178826,-0.2283107,-0.008323032,3.825,-69.450005,-15.675,145.14586,-29.915478,2.9638507,0.19951342,0.16550857,0.6807,0.6851634,984.3642
1747655992909,-0.43788654,6.6568327,12.212967,-0.11911863,-0.0151189035,0.10346522,3.73125,-69.24375,-15.6,145.15259,-29.77965,3.0933921,0.19927545,0.16368799,0.68082356,0.6855471,984.3642
1747655992931,1.2107682,6.4008007,12.58864,-0.08796453,-0.2215912,0.14011711,3.73125,-69.225006,-15.937501,145.03543,-29.640228,3.1648664,0.19923516,0.16183272,0.68190014,0.684929,984.3903
1747655992955,2.4909284,5.6279187,13.112668,-0.017104214,-0.06459895,-0.06391173,3.525,-68.9625,-16.181252,144.86707,-29.464716,3.6227763,0.20048457,0.15899992,0.682122,0.685007,984.424
1747655992976,1.3950156,5.1732826,11.91865,0.13988803,0.25121814,-0.16348268,3.73125,-68.793755,-16.650002,145.02132,-29.450485,3.5400546,0.19995299,0.15955915,0.6815493,0.68560207,984.424
1747655992997,0.97866446,5.0943193,10.609776,0.24862197,0.17363831,-0.14271328,3.5625002,-68.7375,-16.743752,145.19281,-29.625645,3.2039108,0.19923308,0.16232271,0.68077826,0.68592894,984.4296
1747655993019,0.89730847,4.9531426,8.420342,0.22113305,-0.2197586,-0.15370885,3.7125,-68.850006,-16.96875,145.35258,-29.91407,3.085059,0.20108557,0.16468327,0.6791272,0.6864621,984.4296
1747655993039,1.3543376,4.599005,7.702496,0.03176497,-0.22281294,-0.17753258,3.3187501,-69.15,-16.425001,145.54686,-30.132883,3.2742774,0.20366275,0.16411799,0.67733854,0.687604,984.4145
1747655993061,1.3280165,4.2759743,7.1425757,-0.09651663,-0.016340632,-0.21113014,3.16875,-69.318756,-15.975,145.7748,-30.173489,3.4196632,0.2044656,0.16301632,0.67549133,0.6894425,984.4145
1747655993087,0.8757731,4.3070807,6.8219376,-0.13683371,0.039858926,-0.19646938,3.15,-69.525,-15.58125,146.15843,-30.024279,3.2660544,0.20293789,0.1626357,0.67412055,0.691323,984.3803
1747655993108,0.930808,4.3788652,6.424729,-0.12156209,-0.023060145,-0.23861906,3.15,-69.39375,-15.356251,146.40979,-29.904367,3.116035,0.2018174,0.16235457,0.67295,0.6928557,984.3803
1747655993130,0.94755775,4.2281175,6.9152575,-0.06597339,-0.030390523,-0.34246606,3.43125,-69.375,-15.50625,146.81523,-29.78299,2.96203,0.2010117,0.16191845,0.67125654,0.6948319,984.35614
1747655993153,-0.35174492,3.7758741,6.6855464,0.047647454,-0.0377209,-0.30520332,3.3937502,-69.01875,-15.543751,147.25519,-29.775667,2.7790198,0.2004911,0.16237728,0.66825926,0.6977582,984.35614
1747655993176,-0.16031912,3.830909,6.9009004,0.08185588,0.020922119,-0.06818778,3.7875001,-68.756256,-15.58125,147.7031,-29.88525,2.5620656,0.20058767,0.16335665,0.6662283,0.69944197,984.3481
1747655993199,0.40438703,3.9720855,7.2119675,0.126449,0.08384119,0.0020616686,4.03125,-68.606255,-15.825001,147.74039,-29.932344,2.5210042,0.20074975,0.16409433,0.6659236,0.6995129,984.3481
1747655993220,0.42831525,4.2711883,6.474978,0.30115634,0.0368046,0.0032833982,4.2562504,-68.53125,-15.88125,147.7194,-30.20291,2.3741179,0.20218265,0.16748647,0.6657405,0.69846976,984.3464
1747655993243,0.3804588,4.5248275,6.259624,0.30298892,-0.038331766,0.027717989,4.55625,-68.512505,-15.918751,147.69801,-30.535635,2.3409448,0.20443147,0.16943668,0.6652976,0.6977665,984.33954
1747655993267,0.09571291,4.84068,6.546763,0.26572618,0.06429352,0.12728895,4.55625,-68.662506,-15.450001,147.56897,-31.129745,2.4309685,0.20711486,0.17172424,0.6651685,0.69653785,984.33954
1747655993288,0.42831525,5.1421757,7.0875406,0.20402883,-0.037110034,0.20731224,4.7625003,-68.625,-15.075001,147.36005,-31.423857,2.4719532,0.20927328,0.17387377,0.6660903,0.69447565,984.33417
1747655993310,1.0289137,5.2570314,8.784052,0.22479823,-0.21914774,0.16210824,4.7625003,-68.793755,-14.962501,147.10042,-31.651743,2.7050173,0.21185027,0.17392437,0.6668176,0.69298196,984.33417
1747655993331,0.7848458,5.5513487,9.559326,0.24617851,-0.18066326,0.14805835,4.6125,-69.01875,-14.887501,146.90027,-31.8879,3.0807219,0.21516201,0.17350492,0.66700804,0.69188267,984.3415
1747655993354,1.0887343,5.948557,9.525827,0.13500112,0.0050396346,0.16943862,4.6875,-69.05625,-15.1125,146.70981,-32.13089,3.3895366,0.21773542,0.17366143,0.6674547,0.69060636,984.3415
1747655993376,0.9882358,6.3601227,10.291531,-0.100181825,0.048411034,0.08269582,4.18125,-69.450005,-14.887501,146.412,-32.237854,3.5189474,0.21798651,0.17394249,0.6689599,0.68899816,984.362
1747655993398,0.64606214,6.1304116,10.674382,-0.31398448,-0.07437278,0.046043932,4.03125,-69.3,-15.000001,146.32085,-32.078793,3.5492725,0.2169098,0.17251967,0.6697017,0.68897516,984.3901
1747655993419,0.4977071,5.615955,12.574283,-0.54611313,0.06307179,0.022220206,4.275,-68.925,-14.7375,146.29395,-31.515852,3.6559775,0.21355428,0.16821724,0.67081064,0.6900077,984.3901
1747655993440,-0.5479564,5.5298133,13.514663,-0.30726498,0.41615164,0.07536544,4.0687504,-69.09375,-14.325001,146.29033,-30.882776,3.4931684,0.20845152,0.16611482,0.6723632,0.69056606,984.4294
1747655993461,-1.5337993,5.946164,11.382657,0.04459313,0.25305074,0.18959716,4.2375,-68.700005,-14.231251,146.1934,-30.512133,3.051285,0.20419665,0.16738409,0.6742156,0.6897243,984.4294
1747655993483,-1.0935199,6.053841,8.465807,0.018325943,-0.2753473,0.2323577,4.0125003,-68.90625,-14.418751,145.8209,-30.577572,3.0049777,0.20454317,0.16817665,0.67585623,0.6878205,984.42645
1747655993505,-0.3278167,5.572884,8.047063,-0.4251619,-0.31932956,0.20303617,3.7125,-68.83125,-14.775001,145.57732,-30.43405,3.4837382,0.20615198,0.16489881,0.6767783,0.68722695,984.42645
1747655993527,0.18424734,4.570291,9.202796,-0.7476985,-0.08964441,0.1871537,3.7875001,-68.606255,-14.906251,145.38686,-29.833303,3.8417158,0.20445774,0.15947863,0.6783564,0.68745637,984.41156
1747655993548,0.46660042,3.4767714,10.451849,-0.6181952,0.27870706,0.20914483,3.80625,-68.606255,-15.056251,145.15984,-28.743567,3.880193,0.19797541,0.15303683,0.68147296,0.68773544,984.41156
1747655993570,0.44745782,3.3810585,9.049655,-0.09346231,0.42226028,0.25190535,3.73125,-68.3625,-15.3,144.90536,-28.142683,3.602489,0.19146223,0.15169519,0.68510526,0.6862664,984.40375
1747655993591,0.33260235,3.5557344,6.3385873,0.31703883,0.2554942,0.27084216,3.7687502,-68.025,-15.468751,144.57852,-28.076975,3.3039045,0.18979886,0.15416421,0.6874281,0.6838511,984.40375
1747655993613,0.4642076,3.5796626,4.7042894,0.38973173,0.07895427,0.24518585,3.4875002,-67.9875,-15.525001,144.21997,-28.412123,3.2046993,0.19131787,0.1573827,0.68897825,0.68112934,984.38007
1747655993634,0.44506502,3.4049866,5.278567,0.36896232,0.07040217,0.18165591,3.3375,-67.856255,-14.981251,143.76239,-29.043163,3.3407345,0.19460814,0.16044745,0.6901336,0.67830664,984.38007
1747655993657,-0.2009971,3.4337006,5.9748783,0.45020735,0.2689332,0.23052509,3.35625,-68.0625,-14.56875,143.50615,-29.470638,3.301727,0.19684964,0.16477631,0.6912761,0.6754527,984.35077
1747655993678,0.04546363,3.979264,6.0777693,0.62857985,0.17424917,0.3105484,3.4125001,-68.30625,-13.875001,143.16148,-29.987478,3.1626608,0.19881393,0.16954668,0.6926731,0.67225814,984.3349
1747655993699,0.27038896,4.8598228,5.4317074,0.64446235,-0.035888307,0.27817255,3.6937501,-68.55,-13.593751,142.63545,-30.860977,3.2429235,0.20286421,0.17414407,0.6937562,0.66874677,984.3349
1747655993722,0.3062813,5.7834525,5.3144593,0.3555233,-0.067653276,0.1786016,3.7125,-68.981255,-12.918751,142.27182,-31.551905,3.4863951,0.20871048,0.17830524,0.6943433,0.6652328,984.3156
1747655993743,0.4139583,6.235696,6.754938,0.07513637,0.008093959,0.07536544,3.80625,-69.1875,-12.168751,141.95921,-32.07626,3.7520432,0.21179055,0.17994957,0.6946491,0.6634949,984.3156
1747655993763,0.29192436,6.45105,8.642876,-0.10384701,0.10949751,0.029550584,3.61875,-69.46875,-12.075001,141.87979,-32.103825,3.7109482,0.2115909,0.18048309,0.69506466,0.66297835,984.31976
1747655993785,0.8350951,6.245267,10.167104,-0.17470732,0.003817905,-0.0034361144,3.6000001,-69.693756,-12.356251,141.85538,-31.975672,3.6303144,0.21035767,0.18017836,0.69552433,0.6629717,984.31976
1747655993807,1.052842,6.597012,10.667203,-0.13988803,0.07956514,-0.124998204,3.8812501,-69.99375,-12.843751,141.89836,-31.789139,3.6226282,0.20902157,0.17882197,0.6955809,0.66370165,984.34344
1747655993829,-0.20578274,7.018149,9.925428,-0.30054548,0.19562945,-0.14515674,4.40625,-70.200005,-13.2375,142.05629,-31.62917,3.4418004,0.20605224,0.1787851,0.695154,0.6650859,984.34344
1747655993850,-0.44027936,7.288538,11.289337,-0.42027497,-0.025503604,-0.04497492,4.8187504,-70.012505,-13.781251,142.2716,-31.237368,3.05277,0.20260626,0.17758748,0.69529486,0.66631705,984.3686
1747655993871,0.9164511,6.570691,13.641482,-0.19547673,-0.37614,0.046043932,5.4,-69.8625,-13.968751,142.33337,-30.811432,3.092611,0.2013165,0.1741285,0.6955399,0.6673643,984.3686
1747655993893,1.68694,6.352944,13.500305,0.16859868,-0.2234238,0.003894263,5.625,-69.76875,-14.306251,142.32103,-30.59324,3.514008,0.20319739,0.17087406,0.6952632,0.6679236,984.4035
1747655993913,1.8041883,5.938986,10.734202,0.24678937,0.30619597,-0.093233235,5.4,-69.318756,-14.6625,142.33968,-30.883821,3.6827638,0.2052134,0.17224582,0.6946524,0.66759044,984.41425
1747655993935,1.7371893,5.3312087,9.432507,0.09407318,0.38499752,-0.24717116,5.1937504,-69.4875,-14.981251,142.46962,-31.093153,3.2408705,0.20394932,0.17585523,0.6942226,0.66748375,984.41425
1747655993955,1.0360922,4.625326,8.518449,0.10384701,-0.016951498,-0.33085963,5.7375,-69.1875,-15.225,142.79518,-31.199505,2.7487655,0.2020048,0.17917801,0.6923683,0.6691154,984.4006
1747655993977,1.1365907,4.273581,7.5062847,0.058032155,-0.4696023,-0.2862665,6.20625,-69.1125,-15.337501,143.3057,-31.341686,2.745051,0.20369147,0.17877221,0.6897125,0.6714513,984.4006
1747655993999,1.538585,4.017549,7.207182,-0.07086031,-0.4958695,-0.2325104,6.58125,-68.7375,-15.525001,143.66861,-31.370853,3.1357076,0.20739894,0.17522752,0.6864222,0.6746151,984.3945
1747655994023,1.7443677,3.8476589,6.987042,-0.17715079,-0.32299474,-0.27404922,6.2250004,-68.418755,-14.85,143.9944,-31.272694,3.5400648,0.20933944,0.17171836,0.684221,0.6771495,984.3945
1747655994045,1.1006985,3.7064822,6.431907,-0.13927718,-0.23747368,-0.33024877,5.4187503,-67.5,-13.650001,144.57164,-31.001648,3.7758822,0.20966749,0.16850415,0.6815459,0.6805447,984.37177
1747655994066,0.33738798,3.6203406,5.9700923,-0.06475167,-0.3205513,-0.34796384,4.74375,-67.106255,-12.95625,145.01836,-30.895855,3.8541324,0.21015657,0.16659391,0.67898357,0.68341935,984.37177
1747655994087,-0.41635114,3.615555,6.2787666,0.036651887,-0.3517054,-0.19769111,4.5375004,-66.99375,-12.6,145.44113,-30.875557,4.006629,0.21201424,0.16438961,0.6756773,0.6866485,984.34906
1747655994107,0.20578274,3.926622,6.463014,0.12217296,-0.28512114,-0.039477136,4.8,-66.8625,-12.825001,145.67662,-30.946682,4.2582736,0.21439916,0.16300637,0.67398036,0.68790436,984.34906
1747655994128,0.9595219,4.395615,6.6735826,0.18570289,-0.1989892,-0.03825541,4.5375004,-66.80625,-12.806251,145.74863,-31.14002,4.592829,0.21693502,0.16235875,0.6730256,0.6881972,984.33246
1747655994148,0.89013004,4.8263235,6.6687965,0.17898338,-0.10430516,-0.1042288,4.89375,-66.84375,-12.8625,145.81499,-31.36318,4.766429,0.21933225,0.16256425,0.67198116,0.68840945,984.33246
1747655994169,0.22253251,5.1326046,7.097112,0.17104214,0.041691523,-0.12316561,4.7625003,-66.43125,-12.750001,145.95255,-31.585545,4.779138,0.22112793,0.16397236,0.6704442,0.6889994,984.3288
1747655994189,-0.050249275,5.477171,7.618747,0.25595233,0.16814053,-0.012599086,4.89375,-66.24375,-12.6,146.06657,-31.810482,4.6300383,0.22162454,0.16624382,0.6697541,0.68896663,984.3288
1747655994210,0.23688944,5.879165,7.8460655,0.40805766,0.056963142,0.08269582,5.0625,-66.20625,-12.76875,146.04709,-32.121964,4.4454746,0.22269869,0.16932838,0.66964847,0.68797106,984.332
1747655994231,0.3062813,6.233303,7.530213,0.47952884,-0.029779658,0.07841977,4.89375,-66.356255,-13.05,145.92178,-32.577007,4.4309583,0.22635372,0.17316861,0.6694056,0.68605596,984.332
1747655994252,0.5623133,6.4008007,7.6546397,0.35491243,-0.18310672,0.09735657,5.0625,-66.375,-12.76875,145.79124,-33.119537,4.5350475,0.23016573,0.17541765,0.6689276,0.6846811,984.3405
1747655994273,1.4955142,6.5228343,8.616554,0.18448116,-0.32177302,0.098578304,4.8187504,-66.3,-12.618751,145.62212,-33.624004,4.90144,0.23390463,0.17560816,0.668552,0.68373144,984.3405
1747655994294,2.6799614,6.546763,9.980463,-0.09224058,-0.35659233,-0.044364054,4.875,-66.262505,-11.962501,145.5306,-33.786755,5.3894234,0.23729004,0.17336069,0.6679317,0.6837447,984.35175
1747655994316,1.7324036,6.719046,11.459228,-0.27183482,0.27198756,-0.15676318,4.36875,-65.756256,-11.400001,145.71614,-33.540974,5.668492,0.23699819,0.17065835,0.6671491,0.685288,984.3532
1747655994338,0.4019942,6.948757,11.971292,-0.27183482,0.46929687,-0.06391173,3.99375,-65.71875,-11.212501,145.86935,-33.21548,5.0571575,0.23046252,0.17237751,0.6681159,0.6861445,984.3532
1747655994359,0.45224348,6.786045,12.397214,-0.13194679,0.0697913,-0.0816268,4.2562504,-65.700005,-11.231251,145.94513,-32.92767,4.542779,0.22676817,0.1730489,0.6687309,0.68660706,984.3647
1747655994381,-0.24885355,6.101698,11.399407,0.021380268,-0.11713332,-0.14088069,4.59375,-65.45625,-11.45625,146.08003,-32.79678,4.4219074,0.22618352,0.17250438,0.6677597,0.687881,984.3647
1747655994402,-0.6149554,5.345566,9.810573,-0.09773836,-0.107359484,-0.08834632,4.6875,-65.381256,-11.512501,146.27339,-32.789864,4.4138675,0.22625689,0.17202502,0.666715,0.68898934,984.3781
1747655994424,-0.083748795,4.546363,9.645468,-0.42210758,-0.04016436,-0.027870705,5.34375,-65.08125,-11.75625,146.49971,-32.39202,4.424681,0.22439973,0.16941614,0.66645646,0.6904917,984.3781
1747655994445,0.24885355,4.1180477,9.5353985,-0.5039635,0.16386448,0.039935283,5.025,-65.137505,-11.85,146.5404,-31.830143,4.3267837,0.22060356,0.1665446,0.6673596,0.6915404,984.384
1747655994466,0.033499517,3.8285162,8.709874,-0.45937032,0.2432769,0.0900262,5.08125,-64.856255,-12.13125,146.50343,-31.23703,4.101831,0.21576735,0.16439253,0.6689745,0.6920208,984.384
1747655994488,-0.18664017,3.6681972,7.628319,-0.3420843,0.20051636,0.17737986,5.0437503,-64.5,-12.356251,146.37907,-30.726337,3.8749526,0.21127264,0.16290398,0.6709428,0.69185394,984.3774
1747655994509,-0.086141616,3.6586258,6.2524457,-0.15271619,0.12904519,0.25740314,4.74375,-64.293755,-12.450001,146.14249,-30.369596,3.776471,0.20777446,0.16157903,0.67364967,0.6905926,984.3774
1747655994531,0.22013968,3.6729827,4.85743,-0.14599667,0.12538,0.30566147,5.08125,-63.91875,-13.031251,145.82227,-30.180466,3.7791045,0.206146,0.16094244,0.67652416,0.6884158,984.36786
1747655994554,1.2394822,3.926622,4.7210393,-0.25595233,0.12049308,0.22502731,5.08125,-64.012505,-12.731251,145.44695,-30.015335,3.8225296,0.2046522,0.16011493,0.6789673,0.686647,984.36786
1747655994578,0.36131623,3.8931224,6.6735826,-0.116675176,-0.034666575,-0.106672265,5.25,-64.275,-13.05,145.15288,-29.567991,3.850524,0.20238833,0.15798303,0.68015766,0.68663377,984.33026
1747655994600,-1.1844472,3.7734814,6.9344,0.1404989,-0.12202024,0.0026725335,5.1375003,-64.350006,-13.031251,145.27745,-29.5051,3.8353395,0.2025882,0.15778883,0.6794607,0.6873091,984.3239
1747655994621,-0.7609176,4.0390844,6.439086,0.30543238,-0.117744185,0.25557056,4.9125004,-64.575005,-13.293751,145.22075,-29.696516,3.9676223,0.20488413,0.15840597,0.6795231,0.6864244,984.3239
