Timestamp,AccX,AccY,AccZ,GyroX,GyroY,GyroZ,MagX,MagY,MagZ,OrientationAzimuth,OrientationPitch,OrientationRoll,GameRotX,GameRotY,GameRotZ,GameRotW,Pressure
1747655892305,0.8566305,4.2687955,9.499506,-0.07506001,0.30604327,-0.029016078,4.03125,-65.55,-11.043751,144.38075,-23.683481,2.073203,0.15909685,0.13253959,0.694887,0.68866074,0.0
1747655892324,0.6891329,4.421936,10.408778,0.05016727,0.019547673,-0.10415245,3.9,-65.700005,-10.575001,144.09814,-23.772652,3.5786438,0.16547611,0.12622914,0.69646597,0.6867452,0.0
1747655892345,-0.23688944,4.237689,9.745967,0.19310963,-0.4667007,-0.0980438,4.275,-65.3625,-10.931251,144.2708,-23.644499,3.5410607,0.16397025,0.12679929,0.69505584,0.688428,0.0
1747655892366,-0.078963146,3.8117664,9.851251,0.44234246,-0.53084147,-0.0015271619,4.05,-65.3625,-10.70625,144.6377,-23.545107,2.7116258,0.15865985,0.12867263,0.6931187,0.6912719,0.0
1747655892386,0.26799613,3.9649072,8.599805,0.45822495,-0.3414734,0.07971785,3.9562502,-65.45625,-10.9125,144.81104,-23.582132,2.614727,0.16072734,0.13018039,0.69165176,0.69198096,0.0
1747655892407,0.7896315,4.1754756,8.2049885,0.29329145,0.1301142,0.083383046,4.18125,-65.4375,-11.19375,144.7118,-24.191372,2.889211,0.16630098,0.13194305,0.6912398,0.69074064,0.0
1747655892428,0.863809,4.321438,7.7886376,-0.028023422,0.6194169,0.057115857,3.91875,-66.01875,-11.043751,144.36098,-25.051748,3.0426211,0.17043155,0.13648719,0.6920612,0.68802303,984.44745
1747655892449,0.4761717,4.342973,8.465807,-0.26870415,0.7984003,0.014355322,4.5,-65.90625,-10.89375,144.18283,-25.271818,2.5686798,0.16866635,0.14092423,0.6934469,0.68616575,984.44745
1747655892470,0.36370903,4.182654,9.229117,-0.2503782,0.6511819,9.162972E-4,4.8375,-66.0,-10.70625,144.10054,-25.040398,1.6382644,0.16159296,0.14514852,0.69542426,0.6849853,984.43646
1747655892489,0.2009971,4.089334,9.276974,-0.092164226,0.4159989,-0.008857539,4.96875,-66.1125,-10.481251,144.09048,-24.749325,1.0960954,0.15654433,0.1466387,0.69670755,0.68453604,984.43646
1747655892510,0.0526421,4.199404,8.953942,0.026343543,0.1838703,0.0051923506,5.25,-65.793755,-10.762501,144.09192,-24.661854,0.753137,0.1539447,0.14814585,0.697261,0.6842375,984.4382
1747655892531,0.10289137,4.304688,8.657232,0.06421716,0.058032155,0.01924224,5.4375,-65.793755,-10.44375,144.0655,-24.772179,0.60680133,0.15369855,0.14970535,0.6973637,0.6838487,984.4382
1747655892553,0.21535404,4.4075794,8.449057,-0.010919208,0.07941242,-0.00763581,5.4375,-65.943756,-10.462501,144.01903,-24.958366,0.5751887,0.1547866,0.15138946,0.697318,0.6832788,984.43695
1747655892574,0.1268196,4.4602213,8.673982,-0.08605558,0.1802051,-0.05894845,5.1375003,-66.075005,-10.368751,143.99854,-25.090416,0.5134972,0.15484263,0.15255378,0.697249,0.6830776,984.43695
1747655892595,-0.16749759,4.402794,8.784052,-0.14164427,0.27305657,-0.09498947,5.0062504,-66.05625,-9.76875,144.0453,-25.121607,0.27987003,0.15329653,0.1542128,0.6970576,0.68324906,984.43646
1747655892616,-0.39720857,4.1443686,9.020942,-0.1532507,0.30970845,-0.085215636,4.6687503,-66.131256,-9.712501,144.1712,-25.025473,-0.263751,0.14925247,0.15660001,0.69690347,0.6837585,984.43646
1747655892639,-0.57188463,3.9553359,9.420543,-0.06895136,0.19364414,-0.02535089,4.40625,-66.05625,-8.962501,144.31886,-24.738222,-0.9591781,0.14452249,0.15831067,0.6969839,0.6842985,984.42596
1747655892663,-0.40917268,4.0414777,9.12144,0.021456625,0.09040799,0.0021380268,4.425,-65.86875,-8.700001,144.35991,-24.614336,-1.2408135,0.14214776,0.1591686,0.69714224,0.68443555,984.42596
1747655892687,-0.3924229,4.082155,8.812766,-0.012140937,0.032375835,-0.013744458,4.65,-65.850006,-8.475,144.37392,-24.612324,-1.3806865,0.14120391,0.16010164,0.6971445,0.68441105,984.43134
1747655892709,-0.33020952,3.979264,9.267402,-0.040240716,0.017104214,0.0015271619,4.9500003,-65.49375,-8.6625,144.40355,-24.568466,-1.5118071,0.14032708,0.16041838,0.6970908,0.68457186,984.4284
1747655892732,-0.15792629,3.8141594,9.499506,0.003130682,-0.018936807,0.0027488915,4.9875,-65.45625,-8.925,144.41415,-24.46235,-1.5367076,0.13940646,0.15971984,0.69727093,0.6847398,984.4284
1747655892754,-0.09092726,3.8404803,9.360723,0.045891218,-0.046425723,0.0033597562,5.0437503,-65.512505,-9.168751,144.42743,-24.356663,-1.4608806,0.13934623,0.1588482,0.6973676,0.6848564,984.42914
1747655892776,-0.086141616,3.912265,9.071191,0.061162837,0.03970621,0.008246674,4.8562503,-65.287506,-9.65625,144.43207,-24.333164,-1.3952274,0.13960254,0.15833955,0.6974415,0.68484676,984.42914
1747655892800,-0.19142582,4.0127635,8.79123,0.062384564,0.02687805,3.054324E-4,4.74375,-65.49375,-9.262501,144.42564,-24.359606,-1.4023813,0.13971415,0.15867378,0.69751585,0.6846708,984.4216
1747655892823,-0.23688944,4.06062,8.743374,0.025121814,-0.14599667,0.009468404,4.8187504,-65.8125,-8.868751,144.42384,-24.466705,-1.3720137,0.14078644,0.1589322,0.6972885,0.6846228,984.4216
1747655892845,0.02632105,3.9481573,8.886943,0.0012980876,-0.16676609,-0.0021380268,5.025,-65.8125,-8.83125,144.41849,-24.50394,-1.1990647,0.14208913,0.1578956,0.69708943,0.6847963,984.4174
1747655892867,0.023928227,4.031906,9.080762,-0.026190827,-0.068416856,-0.012522728,4.96875,-65.8125,-8.6625,144.42574,-24.479277,-0.989367,0.14303815,0.15653318,0.6969433,0.6850602,984.4245
1747655892892,-0.06460621,4.1084766,9.145369,0.0025198173,0.09468404,-0.0051923506,4.875,-65.7375,-9.4125,144.44171,-24.412537,-0.89952356,0.14288336,0.15597154,0.69698673,0.68517643,984.4245
1747655892914,-0.20578274,4.240082,8.681161,0.021456625,0.048258316,0.012522728,4.8375,-65.925,-9.31875,144.43593,-24.432001,-1.016527,0.14241694,0.15672477,0.697098,0.68498844,984.4328
1747655892936,0.13160525,4.2281175,8.678768,-0.028023422,-0.13622284,0.0015271619,5.1937504,-65.943756,-9.3,144.41061,-24.49865,-1.0183973,0.14304307,0.1570346,0.69709474,0.68479025,984.4328
1747655892959,0.25124636,4.0941195,9.016156,-0.04085158,-0.17104214,-0.032070402,5.1937504,-65.756256,-9.1125,144.40054,-24.515562,-0.8199781,0.14441289,0.15567452,0.69688606,0.68502563,984.42255
1747655892981,0.31106696,3.9553359,9.123833,-0.08605558,-6.108648E-4,-0.06017018,5.64375,-65.700005,-8.681251,144.45831,-24.41854,-0.521443,0.1453279,0.15369998,0.69657725,0.68559194,984.42255
1747655893005,0.19142582,3.9840498,9.18126,-0.06772963,0.17409647,-0.06383537,5.34375,-65.64375,-8.606251,144.52231,-24.28418,-0.5309195,0.14414771,0.15286048,0.6965201,0.68608665,984.4223
1747655893027,-0.11964113,4.156333,8.834301,-0.042684175,0.17837252,-0.07299834,5.2875004,-65.8125,-8.75625,144.58868,-24.182291,-0.69358164,0.14262065,0.15339473,0.6964879,0.6863192,984.4306
1747655893050,-0.2632105,4.199404,8.595019,-0.07261655,0.04459313,-0.06994402,5.08125,-65.90625,-8.94375,144.71605,-24.155077,-1.0229322,0.14102784,0.15480061,0.6960712,0.68675524,984.4306
1747655893071,-0.2943172,4.17069,9.01137,-0.084833845,-0.050090913,-0.08093958,5.0062504,-65.700005,-9.243751,144.79735,-24.116034,-1.0750734,0.14060405,0.15476082,0.6956164,0.6873117,984.4211
1747655893093,-0.485743,4.072584,9.315259,-0.03291034,-0.028710645,-0.058337588,5.4375,-65.53125,-9.39375,144.89394,-24.048622,-1.095981,0.14021508,0.1543479,0.6950841,0.68802226,984.4211
1747655893116,-0.485743,3.9960139,9.178867,0.0043524117,0.008552107,-0.028405212,5.26875,-65.5875,-9.525001,144.96837,-24.014748,-1.1692348,0.13955629,0.15457569,0.69460934,0.68858427,984.4201
1747655893142,-0.49292147,3.991228,9.413364,-0.048792824,-0.013439025,-0.0027488915,5.5687504,-65.34375,-9.50625,145.02997,-23.964333,-1.2852896,0.13860391,0.15472513,0.6943877,0.6889665,984.4201
1747655893165,-0.40438703,3.8739798,9.676575,0.031841327,-0.059253883,0.011911863,5.45625,-65.2125,-9.4875,145.04414,-23.888844,-1.3158646,0.13810956,0.15435374,0.69441193,0.68912464,984.4301
1747655893191,-0.3493521,3.9481573,9.583255,0.091706075,-0.109344795,0.06444623,5.2312503,-64.96875,-8.962501,145.01976,-23.892885,-1.2211956,0.13873665,0.15396056,0.6944419,0.68905646,984.4533
1747655893215,-0.14596218,3.912265,9.3104725,0.11247548,-0.064140804,0.113926284,5.1000004,-65.325005,-9.075001,144.93999,-23.949163,-1.1007555,0.13969094,0.1536808,0.6947443,0.6886211,984.4533
1747655893238,-0.31106696,4.4315076,9.152547,0.03611738,-0.11362085,0.18784092,4.875,-65.25,-8.493751,144.79924,-24.03663,-0.9697186,0.1411118,0.1536484,0.6955775,0.68749654,984.4716
1747655893261,0.24646074,3.694518,9.5760765,0.05383246,-0.12522727,0.11514801,4.6687503,-65.4375,-8.6625,144.4937,-24.084288,-0.60064447,0.14290722,0.15208405,0.69680786,0.6862265,984.4716
1747655893283,0.6125626,4.0390844,9.147761,0.11797326,-0.10567961,0.074830934,5.3250003,-65.0625,-8.55,144.36542,-24.090187,-0.34227964,0.1448031,0.15057698,0.6975537,0.6854031,984.4892
1747655893307,0.42592242,4.139583,8.597412,0.02328922,-0.026267186,-0.032681264,5.025,-64.9875,-8.94375,144.28731,-24.201996,-0.094886154,0.14673008,0.15002117,0.6976253,0.68504226,984.4936
1747655893331,-0.22253251,4.615755,8.12124,-0.11720968,-0.031154104,0.10720677,5.025,-65.2125,-9.150001,144.25662,-24.266779,0.03125974,0.14743923,0.1498028,0.6976151,0.68494815,984.4936
1747655893352,1.0624132,3.8404803,7.812566,-0.23938264,0.05131264,0.24770567,5.0625,-65.55,-9.3,143.96376,-24.28215,0.11423602,0.1476975,0.14973521,0.6990373,0.6834556,984.4799
1747655893374,0.18903299,3.7758741,8.618947,-0.337121,0.027488915,0.016798781,4.8562503,-66.0,-9.4875,143.73764,-24.014828,0.35554355,0.14722744,0.14701286,0.70070004,0.6824447,984.4799
1747655893398,-0.64845496,3.5892339,9.506684,-0.2589303,-0.012217295,0.27214026,4.8562503,-65.850006,-9.356251,143.67606,-23.635502,0.33169246,0.14402848,0.14450449,0.70194256,0.6823862,984.4545
1747655893420,0.5192425,3.5581272,9.95175,-0.026801692,0.06536253,0.3252855,4.7625003,-65.625,-9.056251,143.18921,-23.140438,0.4089376,0.14168572,0.1420024,0.7049644,0.6802835,984.4545
1747655893443,1.0336994,3.9720855,9.62154,0.17172936,0.10690133,0.13530655,4.74375,-65.45625,-8.94375,142.85376,-23.07897,0.55118376,0.14203742,0.14130205,0.70746523,0.6777551,984.43915
1747655893467,0.02632105,4.1036906,8.63809,0.13324489,-0.09224058,0.008246674,4.8,-65.3625,-9.056251,142.69562,-23.24496,0.6976811,0.14431268,0.14204459,0.70787174,0.676694,984.43475
1747655893489,0.009571291,4.1611185,8.535198,0.037949976,-0.2357938,-0.0027488915,4.875,-65.475006,-9.262501,142.66615,-23.497028,0.85024786,0.14628372,0.14228812,0.7074086,0.67670393,984.43475
1747655893512,-0.016749758,3.912265,9.487542,6.8722287E-4,-0.16371176,0.016798781,4.7625003,-65.45625,-9.69375,142.67279,-23.591885,1.2092121,0.14855237,0.14079955,0.706855,0.6770995,984.4194
1747655893535,0.2943172,3.9218364,9.509077,0.09231694,0.028099779,0.0070249448,4.5,-65.45625,-9.6,142.66074,-23.576149,1.2934257,0.14898673,0.14029157,0.7068619,0.67710227,984.4194
1747655893558,0.46899325,4.058227,9.480363,0.11614066,0.02687805,-0.049174614,4.0687504,-65.850006,-9.712501,142.66006,-23.633705,1.2817519,0.14950925,0.1409562,0.7066905,0.67702794,984.4091
1747655893581,0.083748795,4.132405,8.819944,0.11980586,0.0048869182,-0.12064579,3.8625002,-65.90625,-9.431251,142.77376,-23.826403,1.2486682,0.15045276,0.14224187,0.70581144,0.6774669,984.4091
1747655893601,0.0071784677,4.130012,9.073584,0.09842559,-0.17776164,-0.0962112,3.9,-66.3,-9.1875,142.91113,-23.996984,1.2007569,0.15151621,0.14317282,0.7046953,0.67819536,984.4047
1747655893625,0.51445687,4.017549,9.425328,0.18577924,-0.13683371,-0.085215636,3.80625,-66.450005,-9.3,143.05618,-24.154253,1.3576578,0.15370663,0.14286867,0.7034621,0.67904633,984.39325
1747655893646,0.8566305,4.3357944,8.408379,0.15401429,-0.091629714,-0.1640172,4.3875003,-66.09375,-9.3,143.16478,-24.336275,1.5146998,0.15601525,0.14308299,0.70241123,0.67956233,984.39325
1747655893669,0.50009996,4.505685,8.049456,-0.081779525,-0.07941242,-0.25686863,4.3125,-66.24375,-9.31875,143.34724,-24.564468,1.6551574,0.15819585,0.14337842,0.7007822,0.68067694,984.3952
1747655893692,0.02871387,4.106084,9.001799,-0.12820524,-0.043982264,-0.24342962,4.9125004,-66.075005,-9.4875,143.7788,-24.57757,1.6678697,0.15849508,0.14273208,0.69857764,0.6830053,984.3952
1747655893715,-0.41635114,4.0103707,10.150353,-0.065286174,0.07208204,0.091324285,4.74375,-66.225006,-9.337501,144.04688,-24.432692,1.4898754,0.15624367,0.14263284,0.6972335,0.6849155,984.38544
1747655893740,0.7704889,3.95055,9.925428,0.114308074,0.34025168,0.017409647,5.1937504,-65.7375,-9.543751,143.9374,-24.217516,1.2304451,0.15391615,0.1428901,0.6986078,0.6839878,984.38544
1747655893762,0.10289137,4.2448673,8.980264,0.19494222,0.080634154,-0.051618073,5.30625,-65.68125,-9.375,143.94989,-24.416645,0.8814239,0.15298362,0.14617825,0.69874424,0.6833626,984.39325
1747655893785,-0.11485548,4.278367,8.650054,0.15706861,-0.11484258,-0.041844238,5.025,-65.64375,-9.28125,144.00803,-24.63498,0.87194186,0.15430276,0.14748693,0.69808847,0.68345505,984.39325
1747655893809,0.24885355,4.0869412,8.831908,0.17661628,-0.2791652,-0.024129158,5.0062504,-65.700005,-9.1125,144.07227,-24.914856,1.1478392,0.15772621,0.1474653,0.6969479,0.6838421,984.4006
1747655893832,0.5288138,4.098905,8.547162,0.16806418,-0.15638138,-0.058337588,4.6125,-65.943756,-8.887501,144.11374,-25.116383,1.4536492,0.16080996,0.14684045,0.6961057,0.6841161,984.40106
1747655893855,0.6795616,4.3334017,7.5493555,-0.016416991,0.32192573,-0.06017018,4.70625,-65.68125,-8.925,144.1779,-25.300268,1.5822585,0.16280624,0.14750528,0.69530815,0.684312,984.40106
1747655893878,0.34217364,4.496114,7.7623167,-0.32368198,0.90530163,-0.054672398,4.6125,-65.4,-8.475,144.19424,-25.329838,1.1390586,0.15709202,0.15200993,0.69642687,0.6835237,984.4001
1747655893902,0.21774685,4.627719,8.690732,-0.45318532,0.7147118,0.07238748,4.9500003,-65.55,-8.325001,144.15227,-24.964792,-0.2657563,0.14775616,0.15673827,0.6986273,0.6822911,984.4001
1747655893923,0.19381863,4.369294,9.064013,-0.36216646,0.5876519,0.04978548,5.3250003,-65.606255,-8.625,143.97504,-24.500755,-1.0646566,0.14170387,0.15817915,0.7006758,0.6811408,984.403
1747655893946,-0.34456646,4.1515474,9.116654,-0.29008442,0.63896453,0.19639303,5.5687504,-66.0,-8.64375,143.84741,-24.186024,-1.6193656,0.13483605,0.16019498,0.70295876,0.67971003,984.4101
1747655893969,0.25603202,4.3812585,8.963513,-0.25770858,0.64629495,0.20616686,5.86875,-65.925,-8.8125,143.57816,-23.896358,-2.2223477,0.12919156,0.1622889,0.70564437,0.67752326,984.4101
1747655893993,1.0193424,4.4554358,8.958728,-0.28214318,0.53145236,0.062613636,6.1687503,-65.662506,-8.45625,143.14195,-23.587833,-2.869826,0.12400697,0.16423488,0.70871603,0.67481166,984.4135
1747655894015,0.26081768,4.3740797,9.126225,-0.1465312,0.20952661,-0.15851942,5.9625,-65.5875,-8.212501,143.06075,-23.406143,-3.082722,0.12100659,0.16455708,0.7099361,0.6739949,984.4135
1747655894037,-0.52163535,4.240082,9.171689,0.028176138,-0.22846343,-0.16890411,6.2625003,-65.418755,-8.00625,143.19513,-23.330729,-3.1771448,0.1210764,0.16420875,0.70881724,0.67524374,984.4074
1747655894062,-0.33738798,4.1467614,9.334401,0.20471606,-0.50152,-0.066889696,6.675,-65.08125,-8.306251,143.48828,-23.523808,-2.7130306,0.12497512,0.16262816,0.7070424,0.676775,984.4074
1747655894085,-0.24646074,4.287938,8.403593,0.2163225,-0.46792242,-0.00641408,6.7875004,-64.8,-8.175,143.56984,-23.808638,-2.1428378,0.13159949,0.16059907,0.705372,0.6777462,984.4128
1747655894107,-0.0023928226,4.3669014,8.114061,0.053221595,-0.3414734,0.022907428,6.7500005,-64.8375,-8.4375,143.58064,-24.11784,-1.6286081,0.1364128,0.15944676,0.70447487,0.67799956,984.41034
1747655894129,0.2656033,4.651647,8.76491,-0.090942495,-0.12522727,0.032681264,6.4500003,-65.193756,-8.45625,143.53079,-24.294989,-1.2173804,0.13931608,0.15816587,0.7042599,0.67793256,984.41034
1747655894152,-0.13160525,4.4434714,9.571291,-0.06772963,-0.0537561,0.013133593,6.1875005,-65.287506,-9.13125,143.44264,-24.302734,-0.9373375,0.14046346,0.15682116,0.70451087,0.6777474,984.3908
1747655894176,-0.6412765,4.4075794,9.970892,0.099036455,-0.27855435,0.024129158,6.2812505,-65.30625,-9.225,143.42387,-24.272715,-0.8368735,0.14158346,0.15578277,0.704347,0.6779242,984.3908
1747655894198,-1.4380864,4.5272202,10.202995,0.38736463,-0.38912088,0.14874557,5.9812503,-65.100006,-9.337501,143.4083,-24.421928,-0.55356425,0.14438,0.15559213,0.7037994,0.6779468,984.4067
1747655894221,-1.5840486,5.2642097,8.920443,0.6427061,-0.106290475,0.46822786,6.2625003,-64.875,-9.337501,142.99944,-25.229258,-0.08178627,0.15065987,0.15810531,0.7044291,0.67533994,984.4067
1747655894243,-0.50488555,5.8887367,7.618747,0.52603096,-0.017104214,0.5079341,5.68125,-65.08125,-9.243751,142.40642,-25.988989,0.15985702,0.15701698,0.16310278,0.7069563,0.6700418,984.41205
1747655894266,-0.021535404,6.166304,7.635497,0.2529744,-0.11056653,0.25442517,5.775,-65.418755,-9.168751,141.82173,-26.629154,0.42281136,0.16135229,0.16581537,0.7087538,0.6664373,984.4001
1747655894289,-1.2586247,5.802595,8.319844,-0.0035888306,-0.10384701,0.12614357,5.11875,-66.1125,-8.83125,141.42531,-27.09092,0.75659823,0.16455007,0.16679206,0.7094483,0.66467047,984.4001
1747655894310,-0.7537391,5.5657053,8.963513,-0.1343139,-6.108648E-4,0.18967351,4.8187504,-66.5625,-8.2875,141.24521,-27.103678,0.8424419,0.16493273,0.16659391,0.7101929,0.66382945,984.38934
1747655894333,-0.12921242,5.211568,9.408579,-0.09582941,0.09407318,0.13897173,4.55625,-66.75,-7.8750005,141.0244,-26.992762,0.86444014,0.16388363,0.166009,0.7118204,0.6624914,984.38934
1747655894356,0.0071784677,4.991428,9.346365,0.097814724,0.1838703,0.06139191,4.4437504,-66.600006,-7.9500003,140.8279,-26.933636,0.76060367,0.16267568,0.16695435,0.7129924,0.66129017,984.3918
1747655894379,-0.4546363,4.9698925,7.989635,0.33360854,-0.032986697,0.035124727,4.51875,-66.543755,-8.400001,140.728,-27.281378,0.61573786,0.16385211,0.16969094,0.7129854,0.66031003,984.3918
1747655894402,-0.6939186,5.0129633,6.640083,0.2957349,-0.06291907,0.109650224,4.6687503,-66.637505,-8.34375,140.65201,-27.710405,0.66919595,0.16655552,0.17214777,0.712597,0.65941626,984.39325
1747655894423,-0.22253251,5.0799623,6.6161547,0.17295109,-0.055588696,0.17501275,4.9125004,-66.76875,-8.4375,140.48482,-28.064957,0.77185804,0.16952464,0.17430791,0.7128878,0.65777594,984.39325
1747655894444,0.44985065,5.2498527,6.680761,0.06543889,-0.10079269,0.14813471,5.15625,-67.012505,-8.625,140.2614,-28.304296,0.9261759,0.17147234,0.17499799,0.7135371,0.6563823,984.3837
1747655894465,0.8853444,5.1996036,7.2287173,0.010461059,-0.16371176,0.031459536,5.64375,-67.03125,-8.83125,140.07468,-28.442783,1.1468008,0.17379302,0.1744165,0.7139446,0.655483,984.3713
1747655894486,0.55034924,5.1828537,7.159325,0.0037415468,-0.16249003,-0.03940078,5.4750004,-67.2375,-8.868751,140.01527,-28.533564,1.4436442,0.17553438,0.1736001,0.7135641,0.65565,984.3713
1747655894507,0.2943172,5.393422,7.3196445,-0.07689261,-0.14905101,-0.07666353,5.71875,-67.275,-9.28125,140.06516,-28.583601,1.6176548,0.17685504,0.1727847,0.7129028,0.6562297,984.3664
1747655894529,-0.09571291,5.491528,7.54457,-0.17707443,-6.108648E-4,-0.05650499,5.7937503,-67.293755,-9.0375,140.15381,-28.55606,1.7285275,0.17716035,0.17187779,0.71231693,0.6570212,984.3664
1747655894553,0.49292147,5.541777,8.539984,-0.27175847,0.14660755,-0.057115857,5.34375,-67.33125,-8.6625,140.22919,-28.298841,1.5896262,0.17445144,0.17093824,0.71255296,0.6577348,984.3586
1747655894575,-0.1363909,5.639883,9.394221,-0.11232276,0.037873615,-0.1499673,5.6062503,-67.200005,-8.493751,140.31279,-28.064188,1.4065614,0.17233618,0.17045975,0.7124338,0.65854514,984.3586
1747655894597,-1.1006985,5.852844,9.2793665,0.10636683,-0.027488915,-0.06627883,5.5125003,-67.05,-8.71875,140.48492,-27.987278,1.2653482,0.17175642,0.17103304,0.7113867,0.659679,984.3781
1747655894620,-0.96430755,6.0634127,8.700303,0.20471606,-0.07269291,0.038179047,5.6062503,-66.99375,-8.700001,140.5784,-28.124699,1.1875322,0.17293337,0.172481,0.71079344,0.65963405,984.3781
1747655894644,-0.971486,6.290731,8.398808,0.18761185,-0.14599667,0.120034926,5.86875,-67.068756,-8.775001,140.4625,-28.614237,1.3240427,0.17570986,0.17410125,0.7104909,0.6588,984.4006
1747655894667,-0.24885355,6.4773707,8.606983,0.12896882,-0.1472184,0.0980438,6.1687503,-66.918755,-8.606251,140.3077,-28.87359,1.5206218,0.17879029,0.17490378,0.7105789,0.65766275,984.40643
1747655894689,-0.4642076,6.570691,8.937193,0.045891218,-0.13316852,0.065667965,6.15,-67.106255,-8.3625,140.15285,-29.13835,1.7824808,0.18111156,0.1751761,0.71050614,0.6570334,984.40643
1747655894713,-0.22731815,6.879365,9.126225,-0.009086614,-0.12095123,0.05650499,6.2812505,-66.95625,-8.325001,140.0729,-29.228859,1.9212887,0.18266423,0.17498383,0.71052414,0.6566353,984.413
1747655894735,-0.038285162,7.085148,9.104691,-0.122707464,-0.12278382,0.01802051,5.9812503,-66.825005,-8.587501,140.01105,-29.272654,2.056014,0.1837089,0.17422724,0.7104788,0.6565941,984.413
1747655894757,0.4019942,7.01097,9.504292,-0.21555892,-0.05131264,-0.04612029,5.86875,-66.99375,-8.981251,139.98865,-29.221653,2.175104,0.18365902,0.17299159,0.71040934,0.65700984,984.42303
1747655894780,0.5623133,6.463014,9.726824,-0.24671301,0.0,-0.13164136,6.39375,-67.03125,-9.150001,140.0967,-28.957886,2.184267,0.182584,0.17173538,0.7101501,0.6579186,984.42303
1747655894802,0.27517462,5.790631,9.686146,-0.2540434,0.091018856,-0.20066908,6.39375,-67.03125,-9.13125,140.34984,-28.662182,2.0244713,0.18031488,0.17037871,0.709353,0.65975446,984.42426
1747655894825,0.21296121,5.1661043,9.379865,-0.21494804,0.18142684,-0.160352,6.8250003,-66.825005,-9.09375,140.58023,-28.409567,1.7498287,0.17680044,0.16997999,0.7086617,0.6615489,984.4289
1747655894846,0.41156548,4.6707897,9.171689,-0.13370302,0.04459313,-0.1621846,6.99375,-66.675,-9.225,140.77419,-28.189724,1.4600918,0.17430493,0.1699329,0.7082091,0.6627069,984.4289
1747655894869,0.42831525,4.063013,9.468399,-0.0060322895,-0.16249003,-0.15729769,7.05,-66.7125,-9.3,140.97598,-28.046673,1.3385122,0.1735425,0.16923673,0.7073055,0.6640488,984.43475
1747655894891,0.89491564,3.2303107,9.779466,0.31283912,-0.26755878,-0.14691298,7.6875005,-66.7125,-9.28125,141.2752,-28.083157,1.551035,0.17621265,0.16798517,0.7052028,0.6658972,984.43475
1747655894914,0.86141616,2.8953154,8.276773,0.45272717,-0.20586143,-0.17928882,8.025001,-66.525,-9.0,141.52834,-28.512426,1.8306962,0.17996214,0.16876335,0.70325685,0.6667551,984.4289
1747655894936,0.81595254,2.7421749,7.4010005,0.28596106,-0.1508836,-0.17806709,7.9687505,-66.412506,-8.94375,141.75142,-28.930868,1.9577514,0.18413748,0.17061211,0.7007475,0.66778576,984.4289
1747655894957,0.9212367,2.7637103,7.63789,0.100869045,-0.21074834,-0.18173227,8.306251,-66.39375,-9.262501,141.9774,-29.1852,2.0566287,0.18626583,0.17083809,0.69903225,0.6689344,984.42035
1747655894982,1.1437693,3.0963125,8.114061,-0.15447243,-0.22479823,-0.23060146,8.625,-66.525,-9.50625,142.35666,-29.1564,2.2992167,0.18770723,0.16819769,0.69673157,0.6715956,984.42035
1747655895005,0.9954142,3.4241292,8.647661,-0.32062766,-0.091629714,-0.2819141,8.90625,-66.43125,-9.3,142.6716,-28.910084,2.4187727,0.18701456,0.16540484,0.69525266,0.67401075,984.3925
1747655895028,0.31106696,3.6466618,8.980264,-0.37438375,0.11606431,-0.30207264,8.90625,-66.675,-9.1875,143.04228,-28.519043,2.3526871,0.18344593,0.16259609,0.69362444,0.6773443,984.38934
1747655895050,-0.30867413,3.8931224,8.961121,-0.26687154,0.2516763,-0.23304491,9.375,-66.20625,-8.925,143.5973,-27.886616,1.8462551,0.17925312,0.1617414,0.6926745,0.67963964,984.38934
1747655895072,-0.2009971,4.347759,8.350951,-0.08666644,0.14477496,-0.14019346,9.4125,-66.09375,-9.543751,143.89406,-27.593954,1.3593978,0.17504339,0.16235237,0.69196886,0.68130803,984.3852
1747655895094,-0.059820566,4.5272202,7.4823565,0.054443322,0.0036651888,-0.10415245,10.293751,-65.475006,-9.76875,144.04312,-27.581404,1.1821928,0.17416963,0.16327004,0.69110036,0.6821936,984.3852
1747655895145,0.5766702,4.974678,7.350751,-0.08239039,0.15393792,-0.1621846,11.325001,-64.9875,-10.743751,144.32994,-27.715126,0.988318,0.17387499,0.16476764,0.68939584,0.6836319,984.3686
1747655895165,0.1794617,5.0009995,7.800602,-0.03046688,0.15332706,-0.16157374,11.493751,-65.137505,-10.950001,144.50993,-27.671618,0.7415701,0.17234784,0.16579615,0.6886544,0.6845166,984.3686
1747655895186,0.15314065,5.3072805,8.185846,0.09231694,0.05497783,-0.06994402,11.53125,-65.30625,-10.8,144.68524,-27.68026,0.4967383,0.17151324,0.16704376,0.6878979,0.6851832,984.35956
1747655895208,1.0073783,6.017949,8.260024,0.32994333,-0.01282816,-0.021685699,11.606251,-64.9875,-9.95625,144.75946,-27.992188,0.4111844,0.17305164,0.16899315,0.68723154,0.684987,984.35956
1747655895230,0.89013004,6.6281185,7.664211,0.4276817,-0.03604102,-0.074830934,11.83125,-65.006256,-9.9375,144.78453,-28.46202,0.45773783,0.17616546,0.1715026,0.6863098,0.6844935,984.36005
1747655895251,0.15314065,7.0803623,7.0468626,0.26763514,-0.008552107,-0.118202336,11.83125,-64.93125,-9.46875,144.9048,-29.124924,0.47139645,0.18039092,0.17519586,0.68449205,0.6842778,984.36005
1747655895274,0.019142581,7.1162543,9.190832,0.030008731,0.045203995,-0.022907428,12.075001,-65.043755,-9.900001,145.00479,-29.430998,0.39378676,0.18203771,0.1776215,0.6832995,0.6844082,984.3581
1747655895296,0.17467605,6.862615,11.810972,0.2334267,-0.23212862,0.037568185,12.20625,-64.762505,-10.05,145.01532,-29.543215,0.34884283,0.18333173,0.17827404,0.6830125,0.68417966,984.3581
1747655895319,0.80877405,6.5754766,11.327622,0.4832704,-0.59498227,-0.054672398,12.4125,-64.668755,-10.293751,144.99246,-30.03962,0.8806861,0.188414,0.1780774,0.68182105,0.68403846,984.39374
1747655895339,0.30867413,6.0753765,11.093125,0.24808747,-0.343306,-0.16951497,12.712501,-64.51875,-10.275001,145.13748,-30.512737,1.4810234,0.1949487,0.17714612,0.6794136,0.684844,984.39374
1747655895364,-2.1798615,5.599205,12.473784,0.18211406,0.6310233,0.023518294,12.356251,-64.93125,-9.993751,145.3719,-30.718143,1.331821,0.19566366,0.17884795,0.677862,0.6857348,984.4245
1747655895386,-2.4789643,5.7810597,11.502298,0.42523825,0.5387827,0.26358816,12.618751,-65.3625,-9.95625,145.26631,-30.91901,0.5677759,0.1917725,0.18631223,0.67955947,0.68316174,984.4438
1747655895408,-1.4069797,5.4173503,10.145568,0.46922052,-0.08491021,0.32406378,12.8625,-65.49375,-9.4125,144.91246,-31.37551,0.18227136,0.19286668,0.19106637,0.6811649,0.6799342,984.4438
1747655895431,-0.011964113,3.8739798,10.71506,0.3898081,-0.08552107,0.22571453,12.975,-65.606255,-9.31875,144.38039,-32.050354,0.63521045,0.19793263,0.19250363,0.6821978,0.6770311,984.4482
1747655895454,-0.91166544,2.940779,9.702896,0.46127927,0.5424479,0.18112141,13.200001,-65.418755,-8.85,144.13657,-32.409637,0.66877866,0.19970116,0.19618294,0.68337166,0.6742662,984.4482
1747655895475,-1.98365,2.9766715,6.977471,0.35254532,0.5760455,0.26419902,12.8625,-65.700005,-8.587501,143.87556,-32.81763,0.11592498,0.19754434,0.2041416,0.6856237,0.6702407,984.4267
1747655895498,-1.3830515,3.5174494,6.1304116,0.11369721,0.118507765,0.3112356,12.7875,-65.925,-8.45625,143.43245,-33.212757,-0.47315225,0.1965179,0.20799288,0.6877407,0.6671825,984.4267
1747655895521,-0.059820566,3.4887354,6.431907,-0.20639594,-0.40561423,0.21716243,13.087501,-66.3,-7.93125,142.93285,-33.19866,-0.06395214,0.19803238,0.20590018,0.6895725,0.6654908,984.3913
1747655895542,0.48095736,3.050849,7.1545396,-0.46479174,-0.13316852,0.12980877,12.750001,-66.65625,-7.55625,142.74039,-32.82355,0.47448492,0.19867672,0.2009229,0.69069517,0.66565585,984.3913
1747655895564,-0.10049855,3.2087753,7.692925,-0.48189595,0.51740247,0.16096286,12.825001,-66.7125,-7.51875,142.58656,-32.22976,0.5307541,0.19383052,0.19689962,0.69329697,0.6655821,984.37714
1747655895585,-0.42831525,3.6729827,7.1952176,-0.34811658,0.70799226,0.20005822,12.637501,-66.918755,-7.55625,142.35435,-31.663158,0.054146476,0.18701336,0.19732407,0.69643915,0.6641248,984.37714
1747655895608,-0.9068798,4.1922255,6.2644095,-0.17646356,0.42943794,0.286801,12.375001,-66.95625,-7.5937505,142.04553,-31.295435,-0.5676502,0.18118683,0.19920683,0.69956607,0.66188765,984.3637
1747655895630,-0.6412765,4.479364,6.0897336,-0.05856666,0.02932151,0.35033095,12.50625,-67.125,-7.8,141.65945,-31.119001,-0.8514107,0.17859499,0.19984959,0.702858,0.6589041,984.35223
1747655895654,0.11485548,4.6971107,6.690332,0.027565273,-0.09407318,0.32406378,12.150001,-67.51875,-7.7250004,140.89922,-31.089119,-0.42680946,0.18051831,0.19821519,0.70591384,0.6555986,984.35223
1747655895677,0.46181476,4.833502,7.085148,0.05016727,0.1508836,0.29718572,11.887501,-67.950005,-7.36875,140.49388,-31.14276,-0.1476696,0.18149573,0.19796777,0.70783526,0.6533279,984.3359
1747655895699,0.89491564,4.9531426,7.381858,0.14912736,0.22968516,0.17379104,11.868751,-68.3625,-7.5750003,139.9643,-31.287512,-0.14736436,0.18128996,0.199623,0.7101132,0.65040284,984.3359
1747655895722,0.33499518,5.359923,6.984649,0.16806418,-0.0048869182,0.038179047,11.90625,-68.7375,-7.425,139.80402,-31.498528,-0.20950532,0.18182394,0.20153439,0.71074736,0.64897,984.3359
1747655895744,0.03589234,5.6279187,7.9680996,0.092927806,-0.07819069,-0.032070402,12.150001,-68.90625,-7.51875,139.77869,-31.690172,-0.12337921,0.18377651,0.20233609,0.7102898,0.6486715,984.3437
1747655895766,-0.5024927,5.960521,9.035298,0.14546217,0.021991132,0.01802051,11.887501,-68.943756,-7.0312505,139.81134,-31.81732,-0.06474642,0.184866,0.20319748,0.7098171,0.64861006,984.3437
1747655895787,-0.18903299,6.1328044,9.389436,0.21326816,-0.13561198,0.07238748,11.56875,-69.09375,-6.5437503,139.7758,-32.036972,-0.06921592,0.18619002,0.20433046,0.70968086,0.64802426,984.362
1747655895808,0.33260235,6.34098,9.51147,0.1796706,-0.34819293,0.03695732,11.26875,-69.131256,-6.3187504,139.70575,-32.277874,0.17667295,0.1893385,0.20416622,0.7091898,0.6477013,984.362
1747655895831,-0.069391854,6.855437,9.38465,-0.087888174,-0.284663,-0.024129158,10.275001,-69.61875,-5.8500004,139.69603,-32.45606,0.5912227,0.19314717,0.202281,0.7081838,0.64826864,984.3747
1747655895853,-0.69152576,7.4440713,10.260424,-0.25954118,-0.19058982,0.042455103,10.14375,-69.99375,-5.86875,139.74939,-32.33329,1.0209656,0.1939574,0.19992995,0.70788294,0.64908415,984.3747
1747655895875,0.701097,7.4273214,10.068997,-0.44035715,-0.262061,0.044287696,9.95625,-70.256256,-6.2625003,139.69415,-32.038853,1.2424409,0.1934219,0.19599873,0.70853937,0.6497264,984.3947
1747655895896,2.1942184,6.206982,11.253445,-0.7726676,-0.37140578,-0.20127994,9.95625,-70.012505,-6.5625005,139.68059,-31.552555,1.5716202,0.19200751,0.18856423,0.708802,0.6520555,984.3947
1747655895918,1.6103697,4.6731825,13.945371,-0.73662657,-0.02687805,-0.37659815,9.95625,-70.068756,-7.2375,139.94157,-30.728874,1.8905394,0.18828261,0.18141212,0.70803916,0.6559877,984.415
1747655895942,0.21774685,3.6873398,13.603197,0.011071924,0.2932151,-0.27458373,9.900001,-69.693756,-8.08125,140.74411,-29.507593,1.350097,0.18152303,0.17895523,0.7069163,0.659768,984.415
1747655895964,0.41156548,3.3619158,10.492527,0.43928814,-0.23701553,-0.22693627,10.05,-69.543755,-8.25,141.06328,-29.590961,1.0099707,0.18107012,0.1813593,0.7049134,0.661377,984.4455
1747655895986,0.4642076,3.0604203,7.82453,0.30550876,-0.55955213,-0.25137085,10.21875,-69.693756,-8.64375,141.37479,-30.013252,1.2270817,0.18600026,0.18165633,0.7019866,0.6630382,984.4211
1747655896009,0.48095736,2.7278178,7.6737823,-0.15630503,-0.13072506,-0.16707152,10.59375,-69.8625,-8.400001,141.85783,-30.263506,1.791723,0.19019198,0.17938729,0.69889885,0.6657234,984.4211
1747655896031,1.1246266,2.7469604,8.439486,-0.27420193,0.26633704,-0.13775001,10.368751,-69.9375,-8.26875,142.055,-29.982592,1.6841584,0.18821998,0.17796537,0.6984316,0.66715425,984.404
1747655896053,1.105484,3.0675986,8.370093,0.020845762,0.20219624,-0.29962918,10.1625,-70.012505,-8.400001,142.25856,-29.685574,1.2892618,0.18371452,0.17839985,0.6981287,0.66860956,984.404
1747655896077,-0.011964113,3.5102708,6.707082,0.2560287,-0.27550003,-0.3753764,10.06875,-69.975006,-8.64375,142.73904,-29.730694,0.8989098,0.18356319,0.18009952,0.6953048,0.6711333,984.38495
1747655896099,-0.4139583,3.7016966,5.845666,0.3775908,-0.5907062,-0.3130682,10.33125,-69.9,-8.625,143.44112,-30.236391,1.2436589,0.18917385,0.17982613,0.6906661,0.6744303,984.38495
1747655896122,-0.5240282,3.9481573,4.694718,0.2957349,-0.42760533,-0.2244928,10.5,-69.9,-8.400001,143.82701,-30.671457,1.6521647,0.19474861,0.17943941,0.6870828,0.6766031,984.3591
1747655896145,0.047856454,4.240082,5.0129633,-0.034742933,-0.09773836,-0.14080434,10.650001,-70.0875,-8.475,144.08719,-30.945528,1.8861172,0.19847853,0.17919648,0.6843449,0.67835605,984.33026
1747655896167,0.5814559,4.534399,6.3888364,-0.20211989,0.19853105,-0.15424335,10.70625,-70.33125,-8.19375,144.26752,-30.932692,1.8746966,0.19728403,0.17894451,0.6834216,0.67970055,984.33026
1747655896189,0.148355,4.725825,6.855437,-0.21372631,0.34697118,-0.18112141,10.293751,-70.293755,-8.306251,144.54697,-30.637617,1.3535308,0.19394504,0.17972635,0.68318504,0.68069226,984.3144
1747655896213,-0.4761717,4.8215375,7.496713,-0.15569416,0.27550003,-0.08155045,9.84375,-70.40625,-8.08125,144.75716,-30.386757,0.75847703,0.18931022,0.18133982,0.6831073,0.68164647,984.3144
1747655896236,-0.3062813,4.962714,8.444271,0.0012980876,0.037873615,0.09193515,10.05,-70.21875,-7.7250004,144.77684,-30.27605,0.5037154,0.18704323,0.18219961,0.68361515,0.6815338,984.31586
1747655896259,0.07178468,5.278567,8.537591,0.17478369,-0.07269291,0.21166465,10.40625,-69.975006,-8.025001,144.52458,-30.39704,0.64859253,0.18837139,0.18241145,0.6845591,0.68016255,984.31586
1747655896282,0.2416751,5.6877394,8.784052,0.15645774,-0.08124501,0.28313583,10.59375,-70.21875,-7.7625003,144.23068,-30.599825,0.8867734,0.19104452,0.18276109,0.6859737,0.6778941,984.3266
1747655896304,0.74416786,6.02752,9.9038925,0.16989677,-0.09468404,0.3112356,10.70625,-70.631256,-7.7812505,143.86897,-30.775303,1.1737919,0.19320442,0.18268344,0.68750674,0.67574656,984.35126
1747655896325,1.1724831,6.2979093,10.07139,0.21693335,-0.194255,0.2855793,10.59375,-70.725006,-7.7625003,143.4799,-30.966002,1.5114455,0.19591348,0.1825119,0.6889765,0.67351216,984.35126
1747655896347,1.5529419,6.599405,10.057034,0.06360629,-0.15210533,0.13591741,10.2375,-70.950005,-7.6312504,143.1346,-31.189117,1.9406207,0.19976443,0.18158476,0.6900736,0.67150545,984.3632
1747655896372,0.21774685,6.9320073,10.590633,-0.10438152,0.32681265,0.027794348,10.368751,-70.6125,-7.7812505,142.89319,-31.242174,2.1304078,0.19944537,0.18172966,0.69085556,0.67075664,984.3632
1747655896395,-0.6556334,6.795616,10.889736,-0.34689483,0.35857764,0.01802051,10.200001,-70.762505,-7.8375,142.84628,-31.051952,1.7013764,0.19458026,0.18324512,0.6923386,0.67024404,984.384
1747655896417,-0.1268196,5.465207,12.890136,-0.44524407,0.22052218,-0.031459536,10.3125,-71.006256,-8.212501,142.82332,-30.636654,1.3143055,0.18980567,0.18242726,0.69362074,0.67051053,984.384
1747655896439,-1.0648061,4.493721,14.065011,-0.054290608,0.30726498,-0.01802051,10.200001,-71.287506,-8.08125,142.86983,-30.13014,1.0121429,0.18526886,0.18137306,0.6945029,0.67115206,984.41254
1747655896461,-1.3112668,4.0438704,10.473385,0.24442227,0.032375835,0.06017018,9.731251,-71.193756,-8.137501,142.87952,-30.019724,0.5129071,0.18281327,0.18411241,0.6951685,0.6703899,984.41254
1747655896483,-1.3160524,3.818945,8.724232,0.033063058,-0.15332706,0.050396346,9.356251,-71.25,-7.89375,142.82942,-30.205442,0.5232725,0.18407834,0.1846461,0.69506526,0.67000395,984.4213
1747655896504,-1.442872,3.318845,8.571091,-0.30657777,0.10995566,0.107817635,9.450001,-71.381256,-7.65,142.76457,-30.0707,0.64495313,0.18361631,0.18332641,0.695505,0.67003673,984.41473
1747655896526,-0.8446664,2.9982069,9.205189,-0.4012618,0.45265082,0.24159703,9.20625,-71.512505,-7.51875,142.5922,-29.628056,0.44779986,0.17820734,0.18183005,0.6981759,0.66912663,984.41473
1747655896547,-0.42831525,3.0412776,8.829515,-0.14347686,0.46181378,0.27030766,9.337501,-71.30625,-7.7625003,142.28549,-29.155144,0.06603253,0.17283349,0.18203722,0.70125765,0.66725457,984.413
1747655896569,-0.7585248,3.1393833,7.5732837,0.17539455,0.14110976,0.32039857,9.375,-71.08125,-7.6125,141.93797,-28.973059,-0.2595796,0.17020234,0.1834917,0.70378625,0.66486603,984.413
1747655896592,-0.019142581,3.290131,5.6446686,0.33910632,-0.12217296,0.40286532,9.150001,-70.725006,-7.8750005,141.3052,-29.328064,-0.05912953,0.17271307,0.18508294,0.7060879,0.6613277,984.38885
1747655896617,0.9667004,3.6753755,4.5224347,0.07032581,0.15210533,0.24098615,9.056251,-71.006256,-7.8187504,140.83087,-29.672129,0.2922283,0.17679167,0.18641225,0.708661,0.6571109,984.38885
1747655896640,0.52163535,3.8285162,6.472585,-0.1532507,0.45998117,0.12370012,9.0,-71.64375,-7.8,140.32945,-29.693851,0.110721335,0.17425515,0.18786596,0.7109123,0.6549392,984.3493
1747655896661,0.26799613,4.17069,7.3603225,0.088651754,0.2498437,0.09010255,8.981251,-71.7375,-7.51875,140.16902,-29.607624,-0.2840339,0.17107657,0.18979874,0.7124606,0.65353596,984.3493
1747655896685,0.39960137,4.634897,6.5754766,0.32444555,-0.2498437,0.045509428,9.0375,-71.925,-7.2187505,140.06134,-29.79919,-0.3462371,0.17245235,0.19172737,0.71271765,0.65233,984.3437
1747655896707,0.62931234,5.1254263,6.4199433,0.29145885,-0.37079492,-0.109650224,8.700001,-72.15,-6.6375003,140.0431,-30.180502,0.009587159,0.17717062,0.19185121,0.71146727,0.6523941,984.3354
1747655896730,-0.80159557,5.367101,6.719046,0.1155298,0.07208204,-0.13591741,8.0625,-72.28125,-6.1125,140.29216,-30.64021,0.33886412,0.18098325,0.19251055,0.70925087,0.6535656,984.3354
1747655896751,-1.038485,5.491528,7.623533,0.08681916,0.09834923,-0.023518294,8.137501,-72.46875,-6.0,140.40598,-30.776993,0.108401485,0.18057323,0.19445139,0.70858186,0.65383005,984.3361
1747655896773,-0.8063812,5.5274205,8.56152,0.16195552,-0.37262753,0.049174614,8.64375,-72.450005,-6.20625,140.41487,-30.924082,0.08531778,0.18202396,0.19533494,0.7080912,0.6536959,984.3361
1747655896796,-0.4426722,5.6949177,9.698111,0.051999863,-0.6157517,0.11575887,8.681251,-72.318756,-6.5062504,140.36038,-31.118639,0.7676472,0.18647829,0.19291124,0.70731485,0.6540006,984.3554
1747655896820,0.18424734,6.2213387,11.0811615,-0.06345358,-0.28038692,0.16340633,8.64375,-72.1875,-6.525,140.14299,-31.100246,1.7074623,0.19172244,0.18788339,0.70735204,0.6539079,984.3554
1747655896842,-0.08853444,6.690332,12.409178,-0.043905906,-0.14294235,0.16157374,7.9687505,-72.450005,-6.6375003,139.96463,-31.003193,2.0400662,0.19290552,0.18571427,0.70810014,0.65336967,984.38495
1747655896864,0.28235307,6.5659056,11.913864,-0.038408123,-0.21991132,0.16096286,7.6312504,-72.525,-6.8250003,139.7779,-30.951084,2.2932165,0.19418576,0.1838695,0.70909125,0.65243655,984.4174
1747655896886,1.4117653,5.426922,12.806387,-0.26198465,-0.2809978,0.10231985,7.8,-72.506256,-6.8437505,139.60849,-30.839363,2.6592965,0.19556566,0.17985548,0.70991963,0.6522424,984.4174
1747655896908,1.3471591,4.0941195,13.064812,-0.23021966,0.089797124,0.0858265,7.8187504,-72.1875,-7.275,139.46886,-30.328817,3.1418495,0.19502565,0.17618978,0.71075773,0.65249187,984.4494
1747655896930,1.8281165,3.7710886,12.263216,-0.067118764,0.24129158,0.0754418,7.9875,-71.9625,-7.33125,139.32504,-29.967424,2.9761274,0.19173509,0.1751202,0.7125808,0.6517662,984.4494
1747655896951,1.6510476,3.615555,10.470992,0.124692775,-0.01282816,-0.08277218,7.8562503,-71.90625,-7.1250005,139.31564,-29.923695,2.8580344,0.19071694,0.1755585,0.713001,0.65148735,984.44745
1747655896974,1.564906,3.4983068,8.788837,0.09537126,-0.16371176,-0.20433427,7.4812503,-71.887505,-7.3125005,139.4843,-30.021431,2.9356997,0.19197011,0.17548923,0.7118671,0.6523773,984.44745
1747655896998,1.2729816,3.505485,7.6953177,-0.0072540194,-0.022601997,-0.28069237,7.51875,-71.55,-6.9750004,139.77432,-30.074747,2.9809263,0.19300112,0.17507954,0.7096948,0.65454644,984.4216
1747655897020,1.0408778,3.5772698,7.23111,-0.10499238,0.09224058,-0.25747952,7.2562504,-71.4375,-7.05,140.28586,-30.002037,2.7384179,0.19183707,0.17518325,0.7077588,0.6569527,984.4216
1747655897043,1.119841,3.6658044,7.173682,-0.08727731,0.06536253,-0.29779658,7.7812505,-71.0625,-7.0875,140.6058,-29.87959,2.4934275,0.18973747,0.17529885,0.70615554,0.6592528,984.3808
1747655897064,0.42831525,3.615555,6.8578296,0.003130682,0.10873393,-0.32589635,8.025001,-71.0625,-7.1625004,140.97246,-29.793095,2.2509196,0.18839873,0.17572135,0.7044552,0.6613401,984.3632
1747655897087,-0.18664017,3.7208393,6.1639113,0.10881029,0.17409647,-0.2611447,8.137501,-71.006256,-7.1062503,141.45322,-29.831373,1.8404863,0.18691926,0.17787765,0.70222044,0.66355646,984.3632
1747655897108,-0.44745782,4.130012,5.4987063,0.18272492,0.1386663,-0.22632541,8.025001,-71.100006,-7.18125,141.8307,-30.035532,1.395541,0.18626694,0.18048666,0.7006567,0.6646874,984.3398
1747655897129,-0.7298109,4.584648,4.8693943,0.12163845,0.06597339,-0.13897173,7.93125,-71.3625,-6.9750004,142.11774,-30.309563,1.0521461,0.18625434,0.18364763,0.69890654,0.66566694,984.3398
1747655897151,-0.5814559,4.9268217,5.493921,0.032452192,-0.092851445,-0.060781047,8.08125,-71.26875,-7.1062503,142.24435,-30.44589,0.9523892,0.18666771,0.1848261,0.6979934,0.66618294,984.32
1747655897172,-0.21296121,4.941179,6.233303,0.031230463,-0.14538582,0.024740024,8.75625,-71.100006,-7.5000005,142.29721,-30.519875,1.0476339,0.18811661,0.18450415,0.697283,0.66660833,984.32
1747655897194,0.4977071,5.2019963,6.7573314,-0.0041996953,-0.03604102,-0.0033597562,8.94375,-70.74375,-6.95625,142.27063,-30.579865,1.1914448,0.18912351,0.1841589,0.6971746,0.66653234,984.3171
1747655897214,0.6723832,5.6063833,8.047063,-0.06956223,-0.055588696,-0.049174614,9.20625,-70.5,-7.1062503,142.26938,-30.598473,1.2439467,0.18942529,0.18375076,0.6969702,0.66677296,984.3171
1747655897235,-0.10049855,5.6446686,9.789038,0.015958842,0.13622284,-0.003970621,9.1875,-70.293755,-6.95625,142.33363,-30.54516,1.277086,0.18921813,0.18350837,0.6967529,0.66712564,984.33417
1747655897259,-0.078963146,5.912665,10.042677,0.13263401,0.37262753,0.160352,9.4875,-70.200005,-6.9750004,142.28796,-30.58823,1.0743244,0.18796827,0.18558116,0.697502,0.66612196,984.33417
1747655897280,0.72502524,6.053841,10.4016,0.18211406,0.2809978,0.16096286,9.28125,-70.33125,-7.51875,142.06674,-30.732283,0.7635996,0.18669818,0.18865815,0.69901115,0.6640296,984.3698
1747655897303,0.81834537,6.1902323,10.449456,0.25541782,-0.055588696,-3.054324E-4,8.868751,-70.36875,-7.0125003,141.82117,-31.07449,0.6104593,0.18809488,0.19163275,0.6996181,0.66214174,984.3698
1747655897323,0.6652047,6.285945,10.4351,0.017791437,0.10506874,-0.098654665,8.325001,-70.78125,-6.6000004,141.83786,-31.31263,0.6781436,0.18948686,0.19253224,0.6990147,0.6621212,984.3964
1747655897345,-0.05503492,6.4677997,11.801401,-0.06956223,0.22785257,-0.15790854,8.34375,-70.818756,-6.1312504,141.95361,-31.32428,0.49988613,0.1879774,0.19353196,0.6986367,0.6626587,984.3964
1747655897367,-1.1700903,6.2380886,12.94517,0.12041672,-0.02565632,-0.17134757,8.625,-70.6875,-5.8875003,142.20418,-31.245083,0.095284045,0.1859973,0.19489358,0.6976259,0.6638822,984.41864
1747655897389,-1.402194,5.5776696,12.550355,0.39591673,-0.19975278,-0.052839804,9.1125,-70.125,-6.05625,142.45323,-31.47255,0.058900952,0.18762504,0.19583637,0.69613665,0.66470945,984.457
1747655897411,-1.1270195,5.058427,10.999805,0.5461895,-0.12156209,0.01924224,9.1875,-70.068756,-6.0,142.52985,-32.042984,0.2307929,0.19208719,0.19819383,0.6944805,0.6644687,984.457
1747655897433,-0.5599205,4.57747,8.669196,0.38186684,-0.109344795,0.0033597562,8.775001,-69.99375,-5.90625,142.52448,-32.579662,0.3344651,0.19579867,0.20086883,0.693428,0.66368085,984.4633
1747655897455,-0.016749758,4.0797625,8.118847,-0.1673006,0.067195125,-0.076052666,9.1875,-69.99375,-5.8875003,142.56537,-32.83277,0.39619568,0.19757633,0.20192617,0.69258463,0.66371375,984.4633
1747655897477,-0.0526421,3.5820556,8.7577305,-0.404927,0.38912088,-0.1084285,9.01875,-70.162506,-6.05625,142.6656,-32.611313,0.23511262,0.19323198,0.20111446,0.6930288,0.66477466,984.4443
1747655897499,-0.3900301,3.3020952,8.913264,-0.41408995,0.5192351,-0.062002774,9.01875,-69.975006,-5.7000003,142.78043,-32.13366,-0.24436094,0.18691212,0.20114931,0.6941732,0.66537684,984.4443
1747655897522,-0.32063824,3.1800613,8.539984,-0.16546799,0.37568185,0.051007207,9.243751,-69.693756,-5.7937503,142.80997,-31.344564,-1.2505779,0.1796516,0.20198953,0.6960227,0.66519016,984.434
1747655897543,-0.5838487,3.1680973,7.4129643,0.11675153,0.16126831,0.15363249,9.1875,-69.4875,-5.625,142.70364,-31.206274,-1.5507575,0.17663583,0.20337948,0.6975374,0.66398644,984.41595
1747655897565,-0.19621146,3.330809,6.1974106,0.26702428,-0.015882485,0.24770567,9.525001,-69.356255,-5.4187503,142.48795,-31.342663,-1.5865109,0.1775028,0.20471352,0.69861615,0.6622089,984.41595
1747655897586,0.21296121,3.5605202,4.87418,0.28473935,-0.08491021,0.25747952,9.39375,-69.450005,-5.45625,142.18224,-31.646288,-1.380982,0.18026793,0.20580563,0.69960016,0.66008115,984.38275
1747655897609,0.2727818,3.7208393,4.3262234,0.07093667,-0.04703659,0.20250167,9.01875,-69.881256,-5.2125,141.72878,-32.061024,-0.9874792,0.18344592,0.2065646,0.7007854,0.6577069,984.38275
1747655897631,0.2009971,3.9314077,4.996214,-0.059177525,-0.032375835,0.15913028,8.775001,-69.918755,-4.74375,141.48303,-32.118282,-0.8053004,0.18453173,0.20610757,0.70213455,0.65610576,984.34686
1747655897654,-0.19381863,4.536792,5.501099,-0.10071633,-0.018325943,0.109650224,8.53125,-70.14375,-4.6125,141.25204,-32.052277,-0.63442194,0.18466762,0.20528449,0.7030728,0.65532035,984.34686
1747655897676,-0.76331043,5.1086764,6.5276203,-0.15997021,-0.01527162,0.07788526,8.53125,-70.2375,-4.275,141.12251,-31.944864,-0.5566263,0.18413267,0.2041249,0.70405066,0.65478295,984.33417
1747655897699,-0.9667004,5.5202417,7.8053875,-0.04818196,0.07941242,0.109039366,8.53125,-70.33125,-4.2375,140.95839,-31.766933,-0.53198147,0.18316017,0.20340195,0.70500684,0.65425175,984.33417
1747655897721,-0.782453,6.013163,8.315059,0.069104075,0.11117739,0.15118903,8.55,-70.36875,-4.14375,140.79636,-31.788366,-0.5824476,0.18270624,0.2040602,0.70590365,0.6532059,984.3432
1747655897743,-0.40438703,6.3338017,8.941978,0.092927806,-0.050090913,0.16279547,8.45625,-70.256256,-4.4812503,140.5939,-31.900333,-0.58123606,0.18300721,0.20505099,0.70681226,0.65182734,984.3432
1747655897766,0.8255238,6.410372,10.164711,-0.037797257,-0.31276277,0.040622506,8.45625,-69.918755,-4.55625,140.40886,-32.003086,-0.33942157,0.1859056,0.20360354,0.7073814,0.65084267,984.3659
1747655897788,0.19860429,6.245267,11.260623,-0.13492475,-0.045203995,-0.040011644,8.2875,-69.9375,-4.74375,140.35791,-31.974493,0.045347583,0.18702081,0.20141387,0.7071375,0.6514693,984.394
1747655897810,-0.51206404,6.4295144,12.038291,-0.06345358,0.28893903,0.038179047,7.9875,-69.825005,-4.8,140.38295,-31.706425,-0.11071288,0.18436454,0.20157982,0.7078127,0.6514418,984.394
1747655897832,-0.40438703,6.4558353,11.5621195,0.1155298,-0.14294235,0.06139191,7.8375,-69.75,-5.1000004,140.31215,-31.695076,-0.26900923,0.18321404,0.20250724,0.7084336,0.6508035,984.43915
1747655897855,0.46660042,5.6470613,10.815558,0.045891218,-0.5754346,-0.011911863,7.8,-69.5625,-5.0625,140.27682,-31.810835,0.08881211,0.18702938,0.20054178,0.7077424,0.6510789,984.43915
1747655897877,0.4426722,4.6875396,10.9375925,-0.11537708,-0.44287696,-0.06017018,8.043751,-69.46875,-5.4375,140.34111,-31.82262,0.70952123,0.19061233,0.19682236,0.7065862,0.6524292,984.4511
1747655897900,1.0815558,4.115655,11.277373,-0.12820524,-0.12400555,0.009468404,8.212501,-69.20625,-5.7375,140.46257,-31.52604,1.2590901,0.19173305,0.19271746,0.7060774,0.65387547,984.4511
1747655897922,2.225325,4.1228333,9.796216,-0.05856666,-0.23518294,-0.17501275,8.137501,-68.83125,-5.6062503,140.51212,-31.36016,1.4111485,0.19195525,0.19031173,0.7057598,0.65485704,984.4555
1747655897944,2.120041,3.9673,8.721839,-0.4256964,-0.30115634,-0.3509418,8.175,-68.662506,-5.83125,140.8912,-31.119022,1.7014226,0.192739,0.1870631,0.7040151,0.6574357,984.4555
1747655897967,1.1413764,3.5605202,10.186246,-0.703029,0.31826055,-0.39614582,7.89375,-68.83125,-5.7000003,141.37828,-30.507908,1.682015,0.18834344,0.18175335,0.70216405,0.6621617,984.4416
1747655897990,0.2656033,3.574877,10.3681,-0.563141,0.5064069,-0.27397284,8.15625,-68.775,-5.9812503,142.0419,-29.322542,0.7156771,0.17826802,0.17976706,0.70190305,0.66576004,984.43207
1747655898012,0.076570325,3.885944,10.030712,-0.116598815,0.16615522,-0.18112141,8.3625,-68.49375,-5.64375,142.31895,-28.817753,0.12721778,0.17220066,0.17963664,0.70188165,0.6674127,984.43207
1747655898034,-0.24646074,4.048656,7.6402826,0.41118836,-0.11911863,-0.123089254,8.75625,-68.15625,-5.9812503,142.5287,-28.820885,-0.04647986,0.17205141,0.18077113,0.7005105,0.66858447,984.425
1747655898055,-0.1363909,4.2759743,5.285745,0.4899899,-0.108123064,-0.11331542,9.225,-67.575005,-5.86875,142.6899,-29.270311,0.0017118092,0.17666075,0.18403396,0.6982721,0.6688337,984.425
1747655898077,-0.2656033,4.328616,4.354937,0.326889,0.023823727,-0.13347395,9.31875,-67.068756,-6.4125004,142.83165,-29.836111,0.04184756,0.17973751,0.18709834,0.69656026,0.66894877,984.38934
1747655898099,-0.25124636,4.362116,5.2642097,0.12041672,0.10567961,-0.11026109,9.243751,-67.200005,-6.6937504,143.09215,-30.425112,-0.2004723,0.18087973,0.19010332,0.69510126,0.66931117,984.38934
1747655898122,0.06460621,4.3645086,6.192625,0.1295797,0.09407318,-0.082161315,9.056251,-67.40625,-6.2812505,143.20282,-30.57719,-0.3886348,0.1808407,0.19192243,0.694406,0.66952425,984.3547
1747655898145,0.27038896,4.3645086,6.4414787,0.28596106,0.04092794,-0.0772744,9.31875,-67.443756,-5.9625,143.29323,-30.789051,-0.52635384,0.18173702,0.19442065,0.6934698,0.6695311,984.3459
1747655898168,-0.019142581,4.5224347,6.0370917,0.29634577,-0.09407318,-0.051618073,9.58125,-67.18125,-5.5125003,143.38463,-31.127966,-0.57913065,0.18387017,0.19649081,0.69237494,0.66947746,984.3459
1747655898191,0.14596218,4.898108,6.6161547,0.1711185,-0.07819069,0.027183482,10.106251,-67.125,-5.68125,143.4467,-31.594608,-0.4314986,0.18746579,0.19808958,0.69120014,0.66922295,984.3415
1747655898213,0.17467605,5.2259245,7.4440713,0.11186461,-0.06108648,0.03084867,9.84375,-67.256256,-5.6062503,143.4103,-31.786928,-0.32776955,0.18898621,0.19862516,0.6910198,0.66882277,984.3415
1747655898236,-0.28713873,5.601598,8.779266,0.17783801,-0.07513637,0.092546016,9.637501,-67.575005,-5.5687504,143.34415,-31.968567,-0.18862711,0.19042148,0.1989287,0.6909382,0.6684097,984.3527
1747655898258,-0.2009971,6.439086,8.437093,0.29695663,-0.08124501,0.15851942,9.637501,-67.856255,-5.5125003,143.10876,-32.392643,0.0355181,0.19381635,0.20059152,0.6912573,0.6666046,984.3527
1747655898282,0.32542387,6.9942207,8.056634,0.032452192,-0.25778493,0.11575887,9.4875,-67.8,-5.55,142.92354,-32.673504,0.2930395,0.19665557,0.20112637,0.69146657,0.6653936,984.3681
1747655898306,0.6939186,6.9224358,9.836894,-0.41408995,-0.2480111,-0.037568185,9.69375,-67.875,-5.8500004,142.83586,-32.62338,0.67883605,0.19856998,0.19779451,0.69153416,0.6657535,984.38226
1747655898328,-0.13399807,6.884151,11.913864,-0.6297252,0.13683371,-0.03451386,9.356251,-67.65,-5.55,142.9332,-31.838453,0.85817355,0.19518672,0.19282211,0.6921139,0.6676077,984.38226
1747655898350,0.3804588,6.391229,12.983456,-0.6278926,0.1404989,-0.018631376,9.3,-67.856255,-5.86875,142.94745,-31.48008,0.7476177,0.18966831,0.18969479,0.69355714,0.66859585,984.4118
1747655898374,0.07178468,5.2689953,14.876179,-0.2607629,-0.41416633,-0.13897173,9.31875,-67.668755,-5.9812503,143.08435,-30.311413,0.70831406,0.18564878,0.18417381,0.6941074,0.6706933,984.4118
1747655898396,-1.1006985,4.761717,12.736995,0.3183369,-0.67561644,-0.08704823,9.1125,-67.668755,-5.7562504,143.30612,-30.140505,1.1715362,0.18904616,0.1794529,0.6919901,0.6732072,984.45013
1747655898418,-0.76570326,4.316652,8.781659,0.21693335,-0.44654214,0.003970621,9.525001,-67.59375,-5.8125,143.46953,-30.61063,2.1168592,0.19635727,0.1772392,0.68952984,0.67422456,984.45013
1747655898441,-0.64845496,3.8213377,8.094919,-0.24304782,0.12217296,0.004581486,9.39375,-67.818756,-6.01875,143.48987,-30.632029,2.340387,0.19784288,0.17603527,0.68904454,0.6746017,984.4545
1747655898463,-0.8542377,3.5270207,8.671589,-0.44463322,0.45387253,0.042455103,9.431251,-67.55625,-5.9812503,143.47713,-30.244461,2.0392232,0.1937921,0.1754311,0.6901666,0.6747878,984.4545
1747655898487,-0.79441714,3.4360933,8.657232,-0.3426188,0.36468628,0.098654665,9.356251,-67.668755,-6.39375,143.40742,-29.716364,1.5106876,0.18467063,0.1753538,0.69312346,0.674335,984.4416
1747655898509,-0.19142582,3.5892339,8.463413,-0.14592032,0.14844014,0.15851942,9.543751,-67.425,-6.3562503,143.28618,-29.290598,1.1219738,0.18102866,0.17505404,0.6949243,0.6735465,984.4245
1747655898532,0.17228323,3.4169507,7.4177504,0.15767947,0.10873393,0.16462806,9.543751,-67.200005,-6.2812505,142.95001,-29.102747,1.0111358,0.1802005,0.17527509,0.6964972,0.6720849,984.4245
1747655898555,0.1052842,3.3882368,6.352944,0.26580253,0.13500112,0.20250167,9.7875,-66.99375,-6.4125004,142.72621,-29.299265,0.990294,0.18113047,0.1775014,0.6978052,0.6698902,984.4025
1747655898577,0.4139583,3.548556,5.477171,0.2767981,0.08185588,0.21288638,9.525001,-67.05,-6.5437503,142.45692,-29.594322,0.9789295,0.18248412,0.17982191,0.698926,0.667732,984.4025
1747655898600,0.5599205,3.7471602,5.2139606,0.13202316,0.007941242,0.11514801,9.6,-67.425,-6.5437503,142.08879,-30.011528,1.0802978,0.18453683,0.1818261,0.699978,0.6655195,984.3725
1747655898622,0.6580262,3.9696927,5.9700923,0.011071924,0.01527162,0.044287696,9.731251,-67.74375,-6.5437503,141.95709,-30.12705,1.1533251,0.1855222,0.1823596,0.70055085,0.664496,984.3725
1747655898645,0.30149564,4.409972,6.867401,0.02451095,0.07574723,-0.044287696,9.75,-67.818756,-6.0750003,141.91055,-30.150835,1.158942,0.18544891,0.18267281,0.7006861,0.66428787,984.34735
1747655898667,-0.5288138,4.682754,7.5326056,0.13996439,-0.0067195124,-0.055283263,10.012501,-67.8375,-5.83125,141.98155,-30.222809,1.0397007,0.18546331,0.18379909,0.70014894,0.66453946,984.34
1747655898691,-0.61016977,5.343173,7.3100734,0.25541782,-0.22235478,0.04734202,10.06875,-67.74375,-5.625,142.03117,-30.55209,1.0866393,0.18761334,0.18518902,0.69934034,0.6644015,984.34
1747655898714,-0.08853444,5.7523456,7.5756764,0.13324489,-0.3243692,0.057115857,10.087501,-67.818756,-5.6062503,141.977,-30.838663,1.4062424,0.19198303,0.18498598,0.6985478,0.6640434,984.3366
1747655898737,0.30388847,5.977271,8.585447,-0.029245151,-0.18203771,0.014355322,10.25625,-67.78125,-5.7000003,141.92674,-30.982738,1.7646073,0.19445497,0.18382305,0.69815016,0.6640653,984.3366
1747655898759,0.16271193,6.1471615,10.080962,-0.20517421,-0.0537561,-0.022907428,9.76875,-68.2125,-5.64375,141.9358,-30.87862,2.0217633,0.1949812,0.1819924,0.6979731,0.6646012,984.3483
1747655898782,0.09332009,6.4606214,11.25823,-0.14530946,0.12217296,-0.04367683,9.806251,-68.193756,-5.71875,141.97447,-30.65587,1.9983656,0.19316393,0.18057677,0.69820875,0.6652701,984.3483
1747655898805,-0.40438703,6.611369,10.700703,-0.1220966,0.112399116,-0.041844238,9.618751,-68.287506,-5.49375,142.04736,-30.477024,1.7562777,0.19127116,0.18083546,0.69834024,0.6656086,984.38495
1747655898827,0.02632105,6.513263,11.263016,-0.18807,-0.15027274,-0.032681264,9.46875,-68.193756,-5.45625,142.09593,-30.311865,1.6838515,0.18997337,0.18014152,0.69839877,0.6661068,984.38495
1747655898850,1.4620147,5.1589255,11.856436,-0.29008442,-0.3555233,-0.1432478,9.675,-68.287506,-5.1937504,142.2536,-29.925997,2.0839164,0.19039446,0.17521791,0.69761956,0.66811347,984.4047
1747655898873,1.5816557,4.0558343,12.526426,-0.29436046,0.0,-0.22388195,9.5625,-68.25,-5.34375,142.49355,-29.543861,2.3058586,0.18933326,0.17052142,0.6964344,0.670861,984.43353
1747655898895,0.8350951,3.6801612,11.782259,-0.013973532,0.15027274,-0.22204934,9.39375,-68.45625,-6.0,142.78838,-29.200596,2.1406415,0.18667625,0.16965185,0.6955969,0.67269254,984.43353
1747655898918,0.89491564,3.6323047,9.652647,0.15584688,-0.14905101,-0.19944735,9.543751,-68.08125,-6.61875,143.06125,-29.133005,1.8847877,0.18610616,0.17049575,0.6939973,0.6742873,984.45404
1747655898942,1.0432707,3.6251264,8.221739,0.08132137,-0.23090689,-0.24770567,9.356251,-68.137505,-6.7312503,143.31902,-29.253141,1.9159228,0.18800047,0.17006536,0.6920385,0.6758819,984.45404
1747655898964,0.2727818,3.4624143,7.3842506,-0.16668972,0.06658426,-0.22754712,9.09375,-68.025,-6.4500003,143.86386,-29.253708,1.9762354,0.18815637,0.16918758,0.68985647,0.6782852,984.43646
1747655898987,-0.22971097,3.656233,7.1569324,-0.33589926,0.25228715,-0.13041963,8.75625,-68.006256,-5.86875,144.10902,-28.984879,1.6709278,0.18411322,0.16886306,0.68924564,0.6800941,984.4062
1747655899010,-0.083748795,3.912265,7.4344997,-0.27420193,0.22296564,-0.09682207,8.981251,-67.537506,-6.05625,144.31285,-28.4307,1.1158606,0.17886509,0.16850483,0.6896195,0.6812036,984.4062
1747655899034,-0.30149564,3.8907297,6.9798636,-0.053068876,-0.020769402,-0.094378605,9.50625,-67.3125,-6.1687503,144.43016,-28.211422,0.8801868,0.17611744,0.16833353,0.6894301,0.68215287,984.3869
1747655899056,-0.31585258,3.8356948,6.4701924,0.03611738,-0.115453444,-0.054672398,9.76875,-67.275,-6.0937505,144.54509,-28.178469,0.86966395,0.17668566,0.16783614,0.68855286,0.68301404,984.3869
1747655899079,-0.07178468,4.113262,6.087341,0.006185006,0.0042760535,-0.032681264,9.806251,-67.2375,-6.01875,144.64532,-28.25202,0.9548649,0.17735559,0.16783659,0.68805254,0.68334436,984.3625
1747655899153,-0.4977071,4.912465,7.6019974,0.22365287,0.09957096,0.116980605,9.4125,-67.0875,-6.4125004,144.6016,-28.217829,0.32209146,0.17335135,0.17140035,0.68906903,0.6824625,984.34735
1747655899174,0.41635114,5.237889,7.367501,0.28290674,-0.18631376,0.21166465,9.450001,-67.18125,-6.2250004,144.40811,-28.520254,0.37853134,0.17603986,0.17336954,0.68980014,0.6805357,984.34735
1747655899194,0.99302137,5.4341,7.6809607,0.19799654,-0.24312419,0.16462806,9.0375,-67.33125,-5.9625,144.15622,-28.854015,0.74623704,0.17995857,0.17333247,0.69023556,0.679077,984.3488
1747655899217,1.4356936,5.5298133,8.829515,0.04772381,-0.05070178,0.05222894,9.01875,-67.425,-5.8125,143.95883,-29.088577,1.1338285,0.18332854,0.17265806,0.69058114,0.6779952,984.3488
1747655899240,0.51445687,5.383851,10.4159565,-0.03046688,0.33353218,0.027183482,8.700001,-67.4625,-5.625,143.84312,-29.15265,1.1435573,0.18261681,0.17342319,0.6910889,0.67747444,984.351
1747655899264,0.5623133,5.7379885,11.114661,0.011682789,0.36835146,0.074830934,8.56875,-67.4625,-5.7000003,143.75844,-29.123981,0.7608318,0.18003413,0.17561868,0.69214493,0.6765214,984.351
1747655899290,0.4331009,6.0921264,11.607583,0.07826705,0.17287473,-0.088269964,8.55,-67.293755,-5.7937503,143.72826,-29.165295,0.42603067,0.17821753,0.17788163,0.69274205,0.6757996,984.3879
1747655899311,-1.1222339,6.532406,10.516456,0.07826705,0.4819723,-0.052839804,8.71875,-67.350006,-5.30625,143.82635,-29.264824,0.041612644,0.17666453,0.18056847,0.6924847,0.67575854,984.42474
1747655899334,-0.95473623,6.582655,9.865608,-0.120264,0.45142907,-9.162972E-4,8.681251,-67.425,-5.025,143.83893,-29.314903,-0.5727124,0.17333445,0.18440706,0.69301784,0.6750373,984.42474
1747655899357,0.13160525,5.0679984,11.980863,-0.20150901,0.049480047,-0.15302163,8.75625,-67.4625,-5.0062504,143.84782,-29.140394,-0.99396807,0.16853818,0.1854495,0.693656,0.6753108,984.43744
1747655899379,0.17706887,4.173083,11.263016,-0.057344932,-0.005497783,-0.33505934,8.75625,-67.293755,-4.8562503,144.1899,-28.806047,-1.2295756,0.1669553,0.18465887,0.6925429,0.67706084,984.43744
1747655899401,-0.11724831,3.749553,9.245867,-0.33284494,-0.05742129,-0.41813695,8.700001,-67.3125,-4.7250004,144.7702,-28.554169,-1.4562361,0.16501641,0.18365353,0.6898149,0.68058527,984.4628
1747655899423,-0.37567315,3.495914,9.501899,-0.68348134,0.076358095,-0.42913252,8.606251,-67.106255,-4.8187504,145.29376,-27.968506,-1.6752708,0.16102053,0.1807163,0.6878422,0.6843151,984.4628
1747655899445,-1.2323036,3.2159536,10.1599245,-0.71585715,0.25717407,-0.3252855,8.4375,-66.75,-4.6125,145.77675,-27.120382,-2.0454485,0.15259123,0.17647341,0.68640405,0.6887833,984.4467
1747655899467,-1.5409778,3.0939198,10.219746,-0.4220312,0.27366742,-0.0051923506,8.625,-66.46875,-4.875,146.08105,-26.311138,-2.5044796,0.14572652,0.1743872,0.6865372,0.6906661,984.44916
1747655899490,-0.63170516,3.1848469,9.662218,0.06788235,0.082466744,0.23060146,8.8125,-66.01875,-5.2312503,146.05533,-25.827318,-2.8075633,0.14171423,0.17372453,0.6882589,0.68995404,984.44916
1747655899513,-0.20817557,3.4887354,6.975078,0.58833915,-0.0048869182,0.31184646,9.525001,-65.71875,-5.49375,145.64127,-26.04344,-2.744023,0.14448267,0.17589591,0.68992996,0.687155,984.435
1747655899535,-0.031106694,3.7950168,4.8933225,0.60238904,-0.045203995,0.2904662,9.356251,-65.625,-5.625,145.20468,-26.888458,-2.5331438,0.14923458,0.17950067,0.6909103,0.684216,984.435
1747655899560,0.36370903,3.6777685,4.508078,0.33483025,-0.21074834,0.17684536,9.337501,-65.793755,-5.49375,144.76186,-27.786198,-2.13788,0.15631579,0.18310274,0.69183105,0.6807412,984.3935
1747655899581,-0.040677983,3.6083765,5.682954,0.13629921,-0.21746786,0.044898562,8.887501,-66.356255,-5.4187503,144.6292,-28.09044,-1.7869941,0.16002473,0.18304068,0.6917825,0.679945,984.3935
1747655899604,-0.54317075,3.6466618,6.853044,0.10881029,0.043371398,0.03451386,8.7375,-66.9,-5.5687504,144.59111,-28.233349,-1.6044406,0.1620787,0.18304536,0.69158924,0.67965376,984.36127
1747655899625,-1.1437693,4.046263,7.085148,0.23892449,0.14172062,0.06444623,8.925,-66.8625,-5.5687504,144.5453,-28.378366,-1.6787738,0.16233496,0.18483287,0.69176435,0.6789302,984.3559
1747655899647,-1.3375878,4.752146,6.8410797,0.28840452,-0.08429934,0.11759147,8.34375,-67.03125,-5.775,144.4656,-28.653,-1.8050417,0.16407968,0.1877305,0.69191563,0.6775602,984.3559
1747655899669,-1.0217353,5.316852,7.5661054,0.12896882,-0.28832817,0.12675445,8.2875,-66.46875,-5.7375,144.24518,-29.177345,-1.4535451,0.16713212,0.18827942,0.6918712,0.6767067,984.34784
1747655899691,-0.74177504,5.407779,9.497113,0.05261073,-0.06597339,0.118202336,7.9875,-66.375,-5.2312503,144.11145,-29.284779,-1.151324,0.17016411,0.18716994,0.69209534,0.67602926,984.34784
1747655899713,-0.78723866,5.359923,10.040284,0.106977694,0.07086031,0.16096286,8.043751,-66.318756,-5.3625,143.95537,-29.364944,-1.0845163,0.17078878,0.18748935,0.69279057,0.6750705,984.3576
1747655899734,-0.21296121,5.7786665,9.990034,0.084375694,-0.014660755,0.13225223,7.6687503,-66.506256,-5.2875004,143.75623,-29.480356,-1.0575465,0.17152278,0.18842044,0.6939291,0.67345387,984.3576
1747655899755,-0.49292147,6.209375,10.006784,-0.023136504,-0.037873615,0.0015271619,7.51875,-66.731255,-5.26875,143.62535,-29.562271,-0.9645638,0.172276,0.18841289,0.6942768,0.6729051,984.37494
1747655899776,-1.3495519,6.364908,10.779666,-0.17096578,-0.013439025,0.030237807,7.4625,-66.7125,-5.45625,143.62021,-29.538073,-0.9316701,0.17174943,0.18774962,0.6943733,0.6731255,984.37494
1747655899800,-0.5838487,6.094519,11.574083,-0.15019637,-0.09957096,0.14935644,7.65,-66.600006,-5.7000003,143.53079,-29.27805,-0.8901315,0.17066489,0.18601935,0.6953342,0.6728898,984.39716
1747655899821,1.1126626,5.328816,11.432906,-0.16058108,-0.2083049,0.094378605,7.6125,-66.637505,-5.7000003,143.32402,-29.057077,-0.5842733,0.17096634,0.18364386,0.6962823,0.6724852,984.39716
1747655899842,1.1509477,4.4554358,11.631511,-0.2173915,-0.011606431,-0.029016078,7.7250004,-66.43125,-6.2250004,143.28291,-28.817005,-0.33910996,0.1709354,0.18085054,0.6966885,0.67282933,984.4174
1747655899864,0.6556334,4.1443686,11.545369,-0.08239039,0.24251331,0.026572619,7.4062505,-66.5625,-6.6937504,143.30396,-28.5494,-0.39511883,0.16843174,0.17957222,0.69732946,0.67313904,984.4174
1747655899886,0.76570326,3.9984066,9.923036,0.1277471,0.082466744,0.033902995,7.1625004,-66.39375,-7.0125003,143.25787,-28.45227,-0.6115083,0.16690715,0.1806013,0.6980102,0.6725377,984.4284
1747655899907,0.8135597,4.0151563,8.202596,0.10025818,-0.2150244,-0.00641408,7.2937503,-66.262505,-6.8625,143.21848,-28.5539,-0.6303781,0.16846214,0.18087247,0.697878,0.6722142,984.42523
1747655899929,0.7585248,3.95055,7.432107,-0.13309216,-0.15393792,-0.026572619,7.0312505,-66.39375,-6.525,143.22862,-28.646986,-0.38972548,0.17003581,0.17937338,0.6974418,0.6726723,984.42523
1747655899950,0.94277215,3.7878382,7.8604226,-0.41164652,0.16371176,-0.09071342,7.3500004,-66.20625,-6.7500005,143.29486,-28.340586,-0.20981659,0.16802798,0.17678496,0.6976403,0.6736555,984.4079
1747655899971,0.7369894,3.7878382,8.559127,-0.40920305,0.433714,-0.14813471,7.6687503,-66.01875,-7.0312505,143.43718,-27.739092,-0.6041916,0.16311738,0.17572477,0.69814694,0.67461425,984.4079
1747655899992,0.21296121,3.7304106,8.370093,-0.12698352,0.4575377,-0.19456044,7.8187504,-65.925,-7.8562503,143.61475,-27.367897,-1.1957147,0.15761505,0.17668511,0.69837165,0.6754383,984.3942
1747655900012,-0.18185452,3.7543387,7.190432,0.123471044,0.23457208,-0.1915061,8.34375,-65.5875,-8.26875,143.83492,-27.30516,-1.7401096,0.15429705,0.17919077,0.69779235,0.6761427,984.3942
1747655900033,-0.33499518,3.739982,6.101698,0.22426373,-0.023212861,-0.18539746,8.45625,-65.381256,-8.45625,144.0661,-27.483492,-2.020029,0.15431495,0.18206476,0.69607043,0.67714494,984.37787
1747655900053,-0.35413775,3.7615173,5.8839507,0.16867504,-0.098960094,-0.12858704,8.212501,-65.55,-8.587501,144.29185,-27.73105,-2.0823934,0.15593633,0.18338455,0.6944632,0.678067,984.37787
1747655900074,-0.11485548,3.8333018,6.2787666,0.092927806,0.03176497,-0.083993904,8.700001,-65.231255,-8.3625,144.45555,-27.92269,-2.066901,0.15723109,0.18416598,0.6933297,0.6787159,984.3398
1747655900095,0.083748795,4.017549,6.640083,0.066049755,0.23823726,-0.10354158,8.83125,-65.418755,-8.137501,144.5587,-28.03311,-2.1675248,0.15679711,0.18599579,0.69267917,0.6789814,984.3398
1747655900116,-0.60059845,4.395615,6.664011,0.07093667,0.1631009,-0.06139191,9.50625,-65.90625,-8.2875,144.69241,-28.136137,-2.5365005,0.15565352,0.18816741,0.6922564,0.67907745,984.3276
1747655900136,-0.22971097,4.7545385,7.259824,0.091706075,-0.07880156,0.03573559,10.05,-65.90625,-8.493751,144.73666,-28.23567,-2.7041395,0.15575936,0.1893173,0.69207513,0.67891824,984.3276
1747655900157,-0.014356935,5.058427,7.6163545,0.1155298,-0.16676609,0.05650499,10.481251,-66.225006,-9.1125,144.6964,-28.365425,-2.589651,0.15749924,0.18925902,0.6919783,0.6786318,984.32025
1747655900180,-0.31585258,5.4436717,8.487342,0.053221595,-0.022601997,0.11942407,10.5,-66.0,-9.731251,144.56836,-28.565235,-2.2961757,0.15970485,0.1889717,0.69213015,0.6780412,984.32025
1747655900202,-0.39960137,5.8504515,9.375079,0.09231694,-0.009162972,0.16646065,10.650001,-65.90625,-9.618751,144.39937,-28.658401,-2.2236662,0.16063792,0.18945481,0.69311905,0.6766745,984.3354
1747655900224,-0.8063812,6.125626,9.822537,0.15218168,-0.31154105,0.2538143,10.3125,-65.8125,-9.806251,144.1815,-28.798779,-2.067091,0.16252033,0.18942748,0.69398856,0.6753401,984.3527
1747655900246,-0.2009971,6.1639113,10.064212,0.097814724,-0.54855657,0.34544402,10.44375,-65.887505,-9.75,143.78676,-29.035503,-1.3692807,0.16806243,0.18669146,0.6951743,0.6735236,984.3527
1747655900268,0.5096712,6.2787666,10.521241,-0.20089816,-0.15393792,0.2593121,10.5375,-66.075005,-10.40625,143.30624,-29.085554,-0.45269892,0.17179272,0.18317614,0.6965574,0.6721172,984.37836
1747655900289,0.52163535,6.1328044,11.358729,-0.4550179,0.37323838,0.15974113,10.63125,-66.20625,-10.9125,142.94846,-28.665276,-0.37916,0.16919464,0.18073252,0.69923294,0.670658,984.37836
1747655900310,0.53599226,5.45085,12.256038,-0.6120101,0.3677406,-0.016798781,10.35,-66.525,-11.15625,142.8193,-28.072584,-0.7556245,0.16323103,0.17949353,0.7013692,0.6702379,984.41254
1747655900338,-1.0600204,4.0941195,13.727624,-0.23083054,0.2791652,-0.22143848,9.525001,-66.3,-10.743751,143.04742,-27.109789,-1.3185756,0.15447636,0.1765996,0.70219076,0.6722185,984.41254
1747655900359,-1.9860427,3.8476589,11.674582,0.073380135,0.30665413,-0.12797616,9.075001,-66.24375,-10.387501,143.28221,-26.916634,-1.7851073,0.15086025,0.17783272,0.7016254,0.67330414,984.4489
1747655900378,-1.9501505,3.656233,9.336794,0.03367392,0.07269291,-0.0070249448,8.85,-65.71875,-9.5625,143.38994,-26.970413,-2.1335917,0.14924408,0.18004084,0.70126235,0.67345566,984.4489
1747655900400,-0.87338024,3.4408789,9.052048,-0.18684827,-0.14294235,0.012522728,8.83125,-65.512505,-9.375,143.39146,-26.863064,-2.1477265,0.14853169,0.17946355,0.7013844,0.6736401,984.46405
1747655900422,-0.5910272,2.993421,9.461221,-0.27603453,-0.13316852,-0.023518294,9.13125,-65.34375,-9.8625,143.4078,-26.563057,-1.9749984,0.14781521,0.17662093,0.7015392,0.67438745,984.46405
1747655900443,-0.7609176,2.833102,9.269794,-0.17524183,0.11728604,0.068722285,9.225,-64.950005,-10.14375,143.4182,-26.229473,-1.9011998,0.14576936,0.17385237,0.70208794,0.67498094,984.45355
1747655900465,-0.6125626,3.0532417,8.054241,0.035506517,0.23151775,0.16768238,9.1875,-64.65,-10.368751,143.3129,-26.037548,-2.0350947,0.14372866,0.17417176,0.70327204,0.67410284,984.44794
1747655900487,0.069391854,3.385844,6.74776,0.18761185,0.009162972,0.15118903,8.981251,-64.481255,-10.5375,143.1079,-26.07124,-2.1964135,0.14338192,0.17604572,0.70477384,0.67211854,984.44794
1747655900509,-0.35653058,3.5006995,6.06102,0.21571162,-0.09590577,0.07910699,9.0375,-64.65,-10.25625,142.92706,-26.27405,-2.1461985,0.14546098,0.17684488,0.70504373,0.6711783,984.4201
1747655900531,-0.70348984,3.5700915,5.7116675,0.11369721,0.10384701,0.118202336,9.0375,-65.100006,-9.637501,142.74477,-26.668135,-2.0018687,0.14723866,0.17827757,0.7053471,0.67009205,984.4201
1747655900554,-0.5407779,3.505485,6.1447687,0.062995434,0.31948227,0.17806709,9.0375,-65.26875,-9.731251,142.56067,-26.780003,-2.1627386,0.1466401,0.1801196,0.70639956,0.6686204,984.4028
1747655900577,-0.16271193,3.9218364,6.2548385,0.14240785,0.14416409,0.13225223,8.981251,-65.5875,-9.900001,142.33728,-26.888256,-2.419777,0.14524832,0.18309744,0.7080709,0.6663437,984.4028
1747655900598,-0.3182454,4.2927237,6.029913,0.16500984,-0.13622284,0.038789913,9.28125,-65.71875,-9.975,142.18153,-27.07254,-2.485652,0.14624728,0.18444829,0.7084945,0.66530156,984.3842
1747655900620,-0.14117654,4.5415773,6.5635123,0.076434456,-0.22296564,-0.019853106,9.637501,-65.90625,-9.918751,142.14806,-27.355288,-2.1787126,0.1492977,0.18423925,0.7079191,0.6652944,984.3842
1747655900644,-0.24646074,4.6803613,7.9369926,-0.065286174,0.09407318,-0.11270455,9.5625,-66.1125,-9.6,142.21553,-27.402107,-2.048794,0.15033178,0.18372011,0.70716816,0.66600335,984.3691
1747655900666,-1.457229,4.8646083,9.891929,-0.07139482,0.19975278,-0.09987639,9.356251,-66.168755,-9.50625,142.3469,-27.322735,-2.2519815,0.14840741,0.18441136,0.7067731,0.66666293,984.382
1747655900688,-1.3351951,4.9435716,10.719846,0.123471044,-0.0024434591,0.08032872,9.150001,-66.262505,-9.712501,142.44067,-27.26215,-2.5739079,0.1468423,0.18579519,0.70676017,0.666639,984.382
1747655900712,0.13878371,5.2977095,10.741381,0.15951207,-0.3555233,0.013744458,9.075001,-66.01875,-9.84375,142.31479,-27.500704,-2.3172095,0.1495984,0.18568899,0.70681024,0.66600245,984.4096
1747655900734,-0.35653058,5.4029937,11.186446,0.027565273,-0.24434592,-0.09315688,9.1875,-65.887505,-9.806251,142.36653,-27.628042,-1.9270911,0.15332901,0.1837837,0.7056739,0.6668869,984.4096
1747655900756,-0.9164511,5.9988065,11.310873,-0.142866,-0.021380268,-0.049174614,9.01875,-65.943756,-9.50625,142.48624,-27.613914,-1.762785,0.15379594,0.18276078,0.70500153,0.66777104,984.4284
1747655900778,-0.3589234,6.084948,11.535798,-0.41836601,-0.08796453,-0.055283263,8.775001,-66.131256,-9.543751,142.57007,-27.2487,-1.7633221,0.15189494,0.18062295,0.70510095,0.6686822,984.4284
1747655900800,0.4211368,5.089534,13.371093,-0.47028953,-0.054366965,-0.11453715,8.981251,-66.1875,-9.7875,142.65921,-26.717236,-1.6729345,0.14944601,0.17674321,0.705257,0.6701046,984.45917
1747655900822,0.033499517,4.0941195,13.533805,-0.03046688,0.27000225,-0.1640172,9.225,-66.075005,-10.44375,142.86609,-26.17644,-1.828019,0.14559329,0.17410061,0.70507056,0.6718385,984.45917
1747655900843,-0.7298109,4.017549,11.696117,0.27313292,0.21258095,-0.068722285,9.28125,-65.9625,-10.425,143.0326,-26.206877,-2.1912823,0.14379682,0.17620394,0.7045002,0.6722753,984.487
1747655900865,0.1794617,4.06062,8.920443,0.38675377,-0.10140356,0.011911863,9.618751,-65.568756,-10.481251,143.06886,-26.554413,-2.3307664,0.1457922,0.17960836,0.70383465,0.6716414,984.487
1747655900887,0.29192436,4.156333,7.2670026,0.17661628,-0.15638138,-0.06444623,9.58125,-65.55,-10.8,143.08861,-26.942162,-2.1907368,0.14895488,0.1807671,0.70297205,0.67154,984.4924
1747655900910,0.21535404,3.871587,7.7479596,-0.033521205,0.0140498895,-0.098654665,9.731251,-65.756256,-10.9125,143.23143,-27.127783,-2.0383883,0.15048006,0.18066934,0.7019662,0.67227805,984.4709
1747655900932,0.09092726,3.737589,7.7503524,0.01962403,0.18142684,-0.09376775,9.76875,-66.168755,-11.00625,143.34648,-27.093258,-2.16221,0.14970054,0.18103446,0.7014942,0.6728463,984.4709
1747655900954,0.069391854,3.723232,6.771688,0.2041052,0.1404989,-0.10537417,10.05,-66.356255,-10.9875,143.45023,-27.154799,-2.422332,0.14856648,0.18338239,0.7009401,0.6730393,984.44037
1747655900976,0.1268196,3.6059837,5.6877394,0.24625486,-0.11300998,-0.13775001,10.181251,-66.5625,-11.0625,143.6151,-27.454124,-2.6288836,0.14992833,0.18598671,0.69959646,0.67342055,984.44037
1747655900998,-0.019142581,3.6897326,5.8504515,0.13141228,-0.15393792,-0.15363249,10.70625,-66.731255,-11.231251,143.84741,-27.77363,-2.5460408,0.15223132,0.18672064,0.698019,0.674337,984.41595
1747655901020,-0.21535404,3.694518,6.4558353,0.08071051,0.12217296,-0.1188132,10.81875,-66.787506,-11.2875,143.98874,-27.875635,-2.5151703,0.15332597,0.18720153,0.69675195,0.6752654,984.41595
1747655901043,-0.4546363,3.8548372,6.647261,0.039171703,0.23884813,-0.012522728,10.875,-67.05,-11.625,144.14836,-27.995111,-2.9048636,0.15150753,0.19026652,0.6963347,0.67524964,984.38837
1747655901065,0.40438703,4.213761,7.4344997,0.13874267,-0.017715078,0.0033597562,10.856251,-67.106255,-11.55,144.14249,-28.05736,-3.1216147,0.15106733,0.19161373,0.6964683,0.6748294,984.3681
1747655901087,0.124426775,4.5272202,7.192825,0.24136795,-0.1423315,-0.05222894,10.9875,-67.106255,-11.75625,144.1495,-28.22506,-3.0726058,0.15354009,0.19238846,0.6956956,0.674848,984.3681
1747655901110,-0.6197411,4.8502517,6.8482585,0.25663957,-0.043371398,0.060781047,10.6875,-67.162506,-11.8125,144.21762,-28.72927,-2.8820405,0.15654483,0.19390184,0.69480777,0.67463917,984.3681
1747655901132,-0.5910272,5.1852465,6.7669024,0.14179699,0.0067195124,0.15851942,11.26875,-67.40625,-11.8125,144.09038,-29.003794,-2.8074136,0.15842935,0.19527204,0.69502676,0.67357755,984.3681
1747655901154,-0.57427746,5.5465627,8.19781,-0.0035888306,0.053145237,0.23426664,11.587501,-67.51875,-11.700001,143.85786,-29.13188,-2.7347624,0.15929835,0.19598968,0.6964482,0.6716933,984.35223
1747655901175,-0.148355,5.6997037,9.08794,0.014737112,-0.04092794,0.26480988,11.493751,-67.96875,-11.306251,143.55392,-29.16851,-2.633386,0.15975387,0.19588989,0.69807565,0.66992253,984.35223
1747655901200,0.7322037,5.895915,10.112068,-0.01886045,-0.16187917,0.13347395,11.85,-68.043755,-11.306251,143.12697,-29.219662,-2.2374036,0.16150859,0.19460303,0.69966185,0.66822,984.3615
1747655901223,0.2847459,6.0729837,10.829915,-0.12942697,-6.108648E-4,0.026572619,11.55,-68.25,-11.0625,143.00383,-29.1808,-1.9804311,0.16263276,0.19273451,0.70028675,0.6678341,984.3615
1747655901246,-0.2416751,6.5252275,11.152946,-0.20822853,0.19303326,0.0070249448,11.325001,-68.325005,-10.931251,142.96101,-29.035019,-1.9621341,0.16119818,0.1921057,0.70084625,0.6677762,984.384
1747655901267,-0.21535404,6.0251274,12.224931,-0.29313874,-0.21563527,-0.058337588,11.25,-68.512505,-11.15625,142.94667,-28.727715,-2.1422973,0.15852283,0.19075121,0.70145965,0.6681608,984.41425
1747655901290,-0.25842485,4.8622155,14.000405,-0.20028728,-0.34574947,-0.09010255,11.1,-68.4,-11.325001,143.0268,-28.393429,-1.9185617,0.15847257,0.18686546,0.7010731,0.6696747,984.41425
1747655901314,-0.9451649,4.2424746,14.098511,0.43073604,-0.03054324,-0.027183482,10.856251,-68.700005,-11.7375,143.21466,-28.166862,-1.5379962,0.16006272,0.18448354,0.69993764,0.67114305,984.44745
1747655901337,-1.1294123,4.493721,9.489935,0.5480221,-0.12034036,0.033902995,11.025001,-68.55,-12.056251,143.2661,-28.624111,-1.5330716,0.16445644,0.18847011,0.69868785,0.6702749,984.44745
1747655901360,-0.72502524,4.625326,8.23131,0.19677481,-0.12767074,-0.027794348,11.025001,-68.625,-11.962501,143.26282,-29.197947,-1.4314766,0.16779463,0.19032133,0.69780225,0.66984683,984.47064
1747655901382,-1.2179468,4.1922255,7.9298143,-0.18318307,0.053145237,-0.113926284,11.00625,-68.5875,-12.262501,143.3688,-29.4313,-1.336943,0.16824587,0.19028386,0.6969569,0.670624,984.47064
1747655901405,-1.6175481,3.7591243,7.982456,-0.3835467,0.25900668,-0.027183482,10.950001,-68.568756,-12.13125,143.52788,-29.113491,-1.5802741,0.16437943,0.18945628,0.69705105,0.6717183,984.44183
1747655901427,-0.971486,3.6203406,8.968299,-0.25954118,0.28893903,0.15057817,10.81875,-68.925,-12.31875,143.50932,-28.67379,-1.9147904,0.15973242,0.18881875,0.6984496,0.6715661,984.42035
1747655901449,-0.09810573,3.7136607,8.733803,0.18700098,0.08124501,0.23060146,10.70625,-69.20625,-12.3,143.16971,-28.413261,-2.1625302,0.15722464,0.1892733,0.70067596,0.6697083,984.42035
1747655901473,0.37088752,3.926622,6.166304,0.543746,-0.13683371,0.21349724,10.575001,-69.1875,-12.6,142.89958,-28.791758,-2.0097091,0.16108726,0.19165064,0.70161873,0.6671222,984.39764
1747655901495,0.46899325,4.034299,4.4147577,0.46127927,-0.16493349,0.14630212,10.725,-69.412506,-12.543751,142.66635,-29.41295,-1.7178668,0.16621172,0.19404429,0.70158345,0.6652076,984.39764
1747655901518,0.4235296,4.0869412,4.421936,0.23648103,-0.10079269,0.091324285,10.931251,-69.787506,-12.3,142.4957,-29.946812,-1.4397167,0.17031144,0.19569077,0.7014129,0.6638667,984.3676
1747655901540,0.15792629,4.0797625,6.1591253,0.11919499,0.07208204,0.046731155,11.137501,-70.0875,-12.431251,142.32712,-30.353464,-1.264302,0.17261985,0.1970919,0.70153266,0.66272855,984.3676
1747655901562,0.038285162,4.362116,6.927222,0.23770276,0.033597562,0.03573559,11.212501,-70.068756,-12.13125,142.27528,-30.551003,-1.3135239,0.17338483,0.19865122,0.701569,0.6620243,984.34076
1747655901585,0.3493521,4.9531426,7.389036,0.39774933,-0.091629714,0.011911863,10.89375,-70.387505,-12.168751,142.23528,-30.896505,-1.2631665,0.1756288,0.20052595,0.7011751,0.6612846,984.34076
1747655901607,0.083748795,5.8073807,7.7096744,0.394695,-0.12705988,-0.046731155,10.5,-70.631256,-12.168751,142.24591,-31.361685,-1.1293863,0.18006077,0.20308827,0.699867,0.66069615,984.3354
1747655901629,-0.34217364,6.2811594,7.9393854,0.28840452,-0.08796453,-0.11514801,10.35,-71.006256,-11.8125,142.32059,-31.81376,-1.0253986,0.1832403,0.2050869,0.6984648,0.66068846,984.341
1747655901654,-0.971486,6.309873,8.673982,0.06666062,-0.041538805,-0.1707367,10.1625,-71.287506,-11.962501,142.58345,-32.24228,-1.0522178,0.18536323,0.20691046,0.6965515,0.66154706,984.341
1747655901676,-0.92602235,6.245267,9.638289,-0.10621411,0.09346231,-0.20799945,10.3125,-71.193756,-12.337501,142.81287,-32.27666,-1.1838564,0.1849132,0.20754765,0.6950068,0.66309625,984.36005
1747655901699,-1.7012969,6.34098,10.219746,-0.15080725,0.17898338,-0.21532984,9.993751,-71.287506,-12.525001,143.2807,-32.037567,-1.7781368,0.18115166,0.20865744,0.6936301,0.6652244,984.36005
1747655901722,-2.105684,6.458228,10.200603,-0.1514181,0.0061086477,-0.15363249,10.012501,-71.11875,-12.656251,143.52167,-31.86383,-2.0761414,0.17881927,0.20892555,0.69281745,0.6666167,984.383
1747655901745,-1.2203395,5.898308,9.822537,-0.39454228,-0.19914192,-0.04367683,10.275001,-71.043755,-12.731251,143.67657,-31.636118,-2.1315432,0.17710257,0.20686613,0.692279,0.6682745,984.39935
1747655901767,-0.25603202,4.924429,11.820544,-0.60223633,-0.22601996,0.03329213,10.275001,-70.950005,-12.450001,143.73363,-31.141798,-1.9361702,0.17522651,0.2020632,0.69269836,0.6698023,984.39935
1747655901789,1.1820544,4.0510488,14.033905,-0.2729802,0.06169734,0.07299834,10.3125,-70.537506,-12.562501,143.64632,-30.178453,-1.6019205,0.17189784,0.19592886,0.6943075,0.6708205,984.4172
1747655901811,0.552742,3.9361932,11.73201,0.19372049,0.19547673,0.033902995,10.462501,-70.40625,-13.05,143.57864,-30.009758,-1.6927031,0.17019883,0.19557905,0.69522846,0.6704018,984.4172
1747655901833,0.28713873,3.8835511,9.171689,0.32933247,-0.023212861,0.10354158,10.556251,-70.36875,-13.25625,143.49329,-30.294048,-1.787563,0.17113587,0.19798641,0.6954873,0.669187,984.4533
1747655901856,1.1150553,4.089334,6.7669024,0.27740896,-0.53084147,0.040011644,10.387501,-70.33125,-13.368751,143.38487,-30.653046,-1.5057687,0.17605336,0.19846566,0.69506204,0.66821057,984.4533
1747655901878,1.308874,4.2951164,5.721239,-0.09705114,-0.48991355,-0.109039366,10.44375,-70.4625,-13.500001,143.37688,-30.928381,-0.87187254,0.18116492,0.19590788,0.69380295,0.66890717,984.4328
1747655901901,0.90448695,4.048656,7.0875406,-0.55825406,0.1423315,-0.27275112,9.806251,-70.575005,-13.668751,143.67435,-30.565271,-0.40849486,0.18121162,0.19143687,0.69249445,0.6715398,984.4328
1747655901923,-0.06460621,3.9146578,8.633304,-0.4721221,0.45570514,-0.34727663,9.525001,-70.818756,-13.725,144.02039,-29.927055,-0.86915106,0.17351626,0.1896819,0.6919762,0.6745975,984.39667
1747655901945,-0.9619147,3.859623,8.281559,6.8722287E-4,0.171653,-0.2855793,9.75,-70.6125,-14.025001,144.41547,-29.44846,-1.5561174,0.16723482,0.19102879,0.69069535,0.67711186,984.3852
1747655901967,-0.64845496,4.046263,7.1976104,0.23403756,-0.20891576,-0.19761476,10.1625,-70.425,-14.38125,144.77036,-29.383617,-1.9650371,0.16748971,0.1921918,0.68883735,0.67861074,984.3852
1747655901989,-0.3182454,4.240082,6.6831536,0.25908303,-0.17104214,-0.14263692,10.8,-70.2375,-14.6625,145.1585,-29.760569,-1.8470263,0.17038746,0.19271742,0.68679446,0.67980987,984.37103
1747655902011,-0.35653058,4.4578285,6.439086,0.16867504,0.1197295,-0.082161315,11.19375,-69.84375,-14.775001,145.35736,-30.087427,-1.8726193,0.17254072,0.19449943,0.68511575,0.6804528,984.37103
1747655902033,-0.20578274,4.6301117,6.9391856,0.08743002,0.18448116,-0.04856375,11.38125,-69.58125,-14.625001,145.43054,-30.24567,-2.1158082,0.1720122,0.19726129,0.6846472,0.68026316,984.3537
1747655902055,-0.09571291,4.8382874,7.618747,0.17295109,0.08429934,-0.038789913,10.96875,-69.76875,-14.38125,145.47957,-30.365757,-2.3308694,0.1718104,0.19907129,0.6843662,0.6800696,984.3537
1747655902076,-0.29671,5.178068,7.530213,0.336052,-0.08429934,-0.00641408,11.26875,-69.525,-14.19375,145.5246,-30.596281,-2.4200256,0.17322712,0.2009039,0.6837407,0.6798005,984.3444
1747655902098,-0.2440679,5.515456,7.1473613,0.34216064,-0.24862197,0.052839804,11.118751,-69.675,-14.2875,145.54468,-30.981352,-2.3253834,0.17758217,0.20263217,0.68264323,0.67926645,984.3444
1747655902121,0.29671,5.800202,7.63789,0.17661628,-0.22601996,0.085215636,11.15625,-70.03125,-14.2875,145.44547,-31.617168,-1.7807124,0.18243265,0.20282756,0.6819545,0.6786144,984.3432
1747655902143,0.5240282,6.0490556,9.32483,0.06055197,-0.12950334,0.03084867,11.2875,-70.293755,-14.343751,145.36859,-31.76479,-1.5055294,0.18478353,0.20222166,0.6818395,0.6782744,984.3432
1747655902164,-0.30867413,6.216553,10.186246,0.106977694,0.034819294,0.04734202,11.08125,-70.36875,-13.968751,145.3425,-31.850029,-1.4181291,0.1858807,0.2024538,0.6817904,0.67795473,984.3515
1747655902186,0.15314065,6.515656,10.033105,0.04344776,0.029932374,0.04734202,10.6875,-70.6125,-13.762501,145.27318,-31.960741,-1.4188923,0.18639347,0.20317532,0.68207973,0.67730683,984.37885
1747655902208,-0.2440679,6.7908306,10.336994,-0.07506001,0.106290475,-0.016798781,10.06875,-70.950005,-13.462501,145.21388,-32.006424,-1.4158738,0.1861315,0.20346344,0.6823736,0.6769963,984.37885
1747655902230,-0.9954142,6.721439,10.559526,-0.113544494,0.16432263,-0.014966187,9.7875,-70.78125,-13.368751,145.22545,-31.883886,-1.6250277,0.18453766,0.20385402,0.6826556,0.6770308,984.40326
1747655902252,-1.0887343,6.0418773,10.71506,-0.15997021,0.18997894,0.003970621,9.825001,-70.575005,-13.89375,145.22823,-31.744347,-1.8421685,0.18184586,0.20435548,0.6832558,0.67700255,984.40326
1747655902275,-1.227518,5.237889,11.006984,-0.12087487,0.16554436,0.022907428,9.9375,-70.3125,-13.762501,145.2061,-31.503086,-2.120647,0.17875639,0.20454101,0.68412226,0.67689425,984.424
1747655902297,-0.8925229,4.9196434,10.30828,-0.0060322895,0.031154104,0.051618073,10.05,-70.125,-14.26875,145.16858,-31.358955,-2.2853682,0.17720692,0.20470634,0.6847366,0.67663044,984.424
1747655902319,-0.79441714,4.65404,8.891729,-0.057955798,-0.13744457,-0.033902995,9.95625,-70.59375,-14.55,145.13898,-31.289227,-2.2498555,0.1771801,0.20410371,0.6848561,0.67669857,984.4416
1747655902343,-1.3112668,4.302295,7.6666036,-0.33223408,-0.100181825,-0.010690134,9.675,-70.912506,-14.775001,145.2029,-31.119612,-2.1438928,0.17655909,0.20177367,0.6846607,0.6777566,984.4416
1747655902365,-1.0241281,3.8237305,7.874779,-0.58452123,-0.026267186,0.09560034,9.95625,-71.175,-15.075001,145.19829,-30.690062,-2.0659914,0.17396355,0.19842874,0.68554205,0.678524,984.4406
1747655902386,-0.3684947,3.4121652,8.992228,-0.5332086,0.09834923,0.16951497,10.200001,-70.875,-15.637501,145.06801,-30.03028,-1.9912165,0.16897264,0.19325355,0.6880324,0.6787582,984.4274
1747655902408,-0.50488555,3.4456646,8.432307,-0.22899793,0.25778493,0.23548837,10.5375,-70.443756,-15.918751,144.78098,-29.293842,-2.0020604,0.16524576,0.19113438,0.6904014,0.67786974,984.4274
1747655902430,-0.34217364,3.522235,6.680761,0.12713623,0.26511532,0.32039857,10.481251,-70.14375,-15.8625,144.26665,-29.104164,-2.2186587,0.16278447,0.19225055,0.69339377,0.6750896,984.4162
1747655902452,-0.11246266,3.751946,4.955536,0.27557638,-0.07696896,0.30512697,10.03125,-69.9,-15.88125,143.8671,-29.35347,-2.2011025,0.16370197,0.19420898,0.6953403,0.6722994,984.4162
1747655902473,0.07178468,3.885944,4.438686,0.19433136,-0.36102107,0.24281874,10.14375,-70.256256,-15.8625,143.52162,-29.681496,-1.8118784,0.167396,0.19442235,0.6963947,0.6702336,984.3881
1747655902494,0.28713873,3.9960139,5.3312087,-0.050625417,-0.12889247,0.1621846,10.06875,-70.4625,-15.4125,143.26324,-29.861433,-1.2863474,0.17165254,0.19244576,0.69718516,0.6689043,984.3881
1747655902516,-0.021535404,4.3740797,6.611369,-0.16424626,0.30970845,0.07177661,10.293751,-70.387505,-15.58125,143.07315,-29.804327,-1.1347439,0.17089133,0.19199814,0.69832337,0.66804,984.35223
1747655902538,-0.6197411,4.7210393,7.6713896,-0.101327196,0.3090976,0.06933315,10.03125,-70.856255,-15.50625,142.95502,-29.642838,-1.4215072,0.16696332,0.19347313,0.699898,0.66695887,984.35223
1747655902561,-0.37088752,5.386244,8.451449,0.13996439,-0.18692462,0.016798781,9.806251,-70.875,-15.731251,142.80394,-29.582287,-1.7371184,0.1660639,0.19441918,0.7005754,0.66619676,984.3454
1747655902583,-0.4833502,5.788238,8.243274,0.18883358,-0.40133816,-0.0070249448,9.4875,-71.006256,-15.843751,142.81914,-29.79124,-1.445514,0.17007206,0.19374737,0.6995195,0.6664908,984.3586
1747655902605,-0.11485548,5.898308,8.9108715,0.05933024,-0.24740024,0.023518294,9.225,-70.8375,-15.937501,142.84657,-30.004663,-1.031537,0.17361529,0.19255368,0.6986108,0.6668761,984.3586
1747655902626,0.21535404,6.0394845,9.671789,-0.07261655,0.09224058,-0.00763581,9.150001,-70.65,-15.993751,142.83302,-30.07986,-0.7715553,0.17487845,0.19173045,0.6984223,0.6669807,984.36444
1747655902647,-0.18424734,6.4845495,10.24846,-0.17829616,0.20708317,-0.08155045,8.925,-70.89375,-15.825001,142.83534,-30.002806,-0.8784719,0.17314798,0.19211112,0.6987236,0.6670071,984.36444
1747655902669,-1.3208381,6.754938,11.282159,-0.1220966,-0.14599667,-0.062002774,8.775001,-70.875,-15.69375,142.95412,-29.775206,-1.1589898,0.17071775,0.19176115,0.69851923,0.6679476,984.3925
1747655902691,-1.1892328,7.082755,11.274981,0.0049632764,-0.32009315,0.08032872,8.8125,-70.89375,-15.731251,143.02187,-29.656322,-0.9026947,0.17193262,0.18970665,0.6980401,0.66872305,984.3925
1747655902712,0.22013968,6.6089764,11.117054,-0.068340495,-0.38423395,0.14446951,9.3,-70.818756,-16.06875,142.89577,-29.65285,-0.4553356,0.17440279,0.18729103,0.6982031,0.66859424,984.4311
1747655902734,1.5314065,5.4556355,12.277573,0.003130682,-0.29016078,0.010690134,9.20625,-70.65,-16.35,142.77682,-29.56857,0.03875802,0.17719895,0.18345909,0.6984225,0.6686923,984.4311
1747655902756,1.0001999,4.5391846,11.442478,0.21204643,-0.08857539,-0.06017018,9.0375,-70.725006,-16.518751,142.79636,-29.574821,0.3700741,0.17918563,0.18217064,0.6978241,0.6691397,984.46356
1747655902778,0.4761717,4.319045,8.968299,0.16378812,0.10506874,-0.053450666,8.925,-70.78125,-16.425001,142.90611,-29.86044,0.40079832,0.18070403,0.18367448,0.69698304,0.66919684,984.46356
1747655902800,0.9451649,4.328616,7.946564,-0.20150901,0.100181825,-0.12553272,8.606251,-70.9875,-16.331251,142.97966,-29.887768,0.24749476,0.18005349,0.18461637,0.69673467,0.6693716,984.4787
1747655902823,0.7704889,3.6490545,9.080762,-0.5191587,0.29077163,-0.2611447,8.55,-70.89375,-16.66875,143.17487,-29.538052,0.041361533,0.17584842,0.18294835,0.6963943,0.67129886,984.4787
1747655902846,0.14117654,3.3499517,9.650253,-0.46845692,0.51618075,-0.23854269,8.34375,-70.8,-16.706251,143.55078,-28.775574,-0.5936299,0.16755326,0.18187302,0.6963355,0.67376924,984.45795
1747655902868,0.009571291,3.318845,9.281759,-0.13797908,0.40194902,-0.18173227,8.793751,-70.275,-16.95,143.86263,-28.17723,-1.4313368,0.16127811,0.1827055,0.69641185,0.6749953,984.4482
1747655902891,-0.009571291,3.4360933,7.8173513,0.16012293,0.17348559,-0.16829325,8.8125,-70.256256,-16.96875,144.0135,-28.083082,-1.8057232,0.15831207,0.18467872,0.6959152,0.67567235,984.4482
1747655902912,-0.3278167,3.7543387,5.898308,0.2609156,0.05131264,-0.1621846,9.3,-69.84375,-16.743752,144.32347,-28.37758,-2.1671097,0.1587894,0.187572,0.69428784,0.6764371,984.4284
1747655902933,-0.40438703,4.005585,4.941179,0.117362395,0.103236146,-0.13530655,9.5625,-69.637505,-16.7625,144.51448,-28.638906,-2.350977,0.15957533,0.18993741,0.6929554,0.67695814,984.4284
1747655902955,0.11485548,4.074977,6.0251274,-0.061620984,-0.01527162,-0.12553272,9.993751,-69.7125,-16.5,144.66708,-28.730904,-2.5278912,0.15910116,0.19137582,0.69172,0.6779274,984.393
1747655902977,0.21774685,4.0151563,7.003792,-0.0035888306,-0.041538805,-0.1499673,10.575001,-69.65625,-16.368752,144.81644,-28.689848,-2.588947,0.15896961,0.19104935,0.6908266,0.6789605,984.393
1747655903001,0.076570325,4.213761,7.422536,0.17295109,-0.03848448,-0.09987639,10.6875,-69.600006,-16.143751,145.11198,-28.773443,-2.6426778,0.15964745,0.19160856,0.68952304,0.67996824,984.362
1747655903023,0.1052842,4.7880383,7.3172517,0.27618724,-0.08857539,-0.03451386,10.70625,-69.46875,-16.06875,145.21405,-29.01266,-2.610519,0.16205281,0.19300714,0.6883101,0.6802326,984.362
1747655903043,0.31106696,5.2498527,6.728617,0.1918879,-0.06291907,-0.052839804,10.8,-69.600006,-16.462502,145.26657,-29.327105,-2.5391037,0.16437562,0.19437544,0.687475,0.68013006,984.35394
1747655903064,-0.15792629,5.206782,7.9800634,0.008628465,-0.09224058,-0.09376775,10.70625,-69.5625,-16.1625,145.34442,-29.532436,-2.4925716,0.16572335,0.19489782,0.6866384,0.68049854,984.3464
1747655903086,-0.9403793,5.2331033,10.035499,0.088651754,-0.2290743,0.003970621,10.650001,-69.75,-15.993751,145.45123,-29.565187,-2.4271507,0.16656585,0.19434533,0.6859313,0.68116367,984.3464
1747655903108,-0.15553348,5.7020965,10.301102,0.34888014,-0.48991355,0.15790854,10.5375,-69.80625,-15.637501,145.45352,-29.679651,-2.1647584,0.17088437,0.19319081,0.6854072,0.68094987,984.3542
1747655903129,1.1485549,6.235696,9.9038925,0.33910632,-0.6163626,-9.162972E-4,10.25625,-69.693756,-15.637501,145.28674,-30.15229,-1.3646499,0.17756698,0.19154972,0.6846246,0.68049085,984.3542
1747655903151,-0.45224348,6.4462643,9.45165,0.06849321,-0.08735366,-0.20616686,10.575001,-69.7125,-16.03125,145.4116,-30.655413,-0.4943556,0.18408522,0.18974715,0.6823501,0.68154746,984.3781
1747655903244,-0.4761717,4.7449675,11.523834,0.06543889,-0.4459313,0.1951713,10.59375,-70.725006,-16.556252,144.86263,-30.16966,-0.5398034,0.18114886,0.18698119,0.68625766,0.6791712,984.4218
1747655903265,-0.79920274,4.5678983,10.406385,-0.083612114,0.06963859,0.2122755,10.33125,-70.4625,-16.40625,144.65567,-30.178919,0.01566592,0.18315297,0.18477806,0.6870686,0.6784164,984.4218
1747655903287,-0.55513483,4.6492543,9.707682,-0.19723296,0.22601996,0.21899502,9.6,-70.387505,-16.5375,144.32678,-29.988005,0.010777027,0.18138571,0.1844836,0.68901134,0.6769996,984.4465
1747655903310,-0.06460621,4.261617,8.970692,-0.22350015,0.053145237,0.124310985,9.225,-70.350006,-16.85625,143.98439,-29.59386,-0.082395695,0.17795365,0.1831912,0.69179076,0.67542505,984.4572
1747655903332,-0.07178468,3.9314077,8.549556,-0.14225514,0.16004658,0.15668681,9.525001,-70.350006,-16.85625,143.8272,-29.346287,-0.083099775,0.17623526,0.18194716,0.69312686,0.67484176,984.4572
1747655903354,0.08135597,3.7854455,7.645068,0.09353867,0.4214967,0.23548837,9.431251,-70.200005,-16.95,143.5939,-29.232616,-0.23517375,0.1737898,0.18309017,0.6953964,0.6728291,984.4484
1747655903378,0.19142582,3.7950168,5.3096733,0.36415178,0.37751442,0.26175556,9.76875,-70.293755,-16.650002,143.09094,-29.549582,-0.7288395,0.17236693,0.18804306,0.6979428,0.66918254,984.4484
1747655903399,0.3182454,3.95055,4.2975097,0.32505643,0.06780599,0.22876886,9.75,-70.4625,-16.800001,142.75722,-29.978846,-0.8701668,0.17348146,0.1919613,0.6993591,0.6662971,984.4211
1747655903421,0.2105684,4.046263,4.9770713,0.20044,-0.08735366,0.1640172,9.8625,-71.006256,-16.612501,142.43987,-30.400677,-0.6697261,0.17661928,0.19385885,0.70025176,0.6639818,984.4211
1747655903442,0.16031912,4.046263,5.6949177,0.18639012,0.064140804,0.14508039,9.95625,-71.25,-16.3125,142.24347,-30.639116,-0.509469,0.1786392,0.19469944,0.7007878,0.66262853,984.3803
1747655903466,-0.009571291,4.3645086,5.611169,0.11614066,0.13744457,0.12186752,9.69375,-71.8125,-16.10625,142.05948,-30.854027,-0.53506535,0.17949654,0.19689564,0.7017116,0.6607677,984.35785
1747655903488,-0.014356935,4.907679,6.1639113,-0.023136504,0.035430156,0.07238748,9.637501,-71.7375,-15.525001,141.89915,-30.996395,-0.59717345,0.17960627,0.19805194,0.70240307,0.6596566,984.35785
1747655903511,-0.3900301,5.211568,7.355537,-0.1550833,0.16126831,0.11575887,9.69375,-71.625,-15.525001,141.73695,-30.949821,-0.6413566,0.1787963,0.19811547,0.7032775,0.65892553,984.33954
1747655903533,-0.124426775,5.3144593,9.293723,-0.16974404,0.3329213,0.17562363,9.75,-71.30625,-15.356251,141.54909,-30.771397,-0.78963023,0.17580709,0.19826347,0.7052991,0.6575231,984.33954
1747655903554,0.20338993,5.493921,10.695917,0.045280352,0.19730933,0.06627883,9.675,-71.11875,-15.6,141.33017,-30.610668,-1.0475433,0.17319702,0.1992499,0.7069483,0.6561451,984.33856
1747655903576,0.4139583,5.7260246,10.085748,0.24869832,-0.26328272,-0.09193515,9.6,-71.043755,-15.450001,141.25313,-30.708012,-1.1649551,0.17399172,0.2004597,0.706871,0.6556495,984.33856
1747655903598,-0.3589234,6.1040907,9.221938,0.13202316,-0.23029602,-0.16462806,9.88125,-71.34375,-15.3,141.3945,-30.959888,-0.93007946,0.17726237,0.20026317,0.70514685,0.6566891,984.36395
1747655903622,-1.134198,6.6352973,9.401401,-0.17951788,0.10506874,-0.11453715,9.918751,-71.756256,-15.20625,141.70425,-31.076046,-0.89750063,0.17747357,0.20042439,0.7034611,0.65838873,984.36395
1747655903643,-1.012164,6.513263,9.982856,-0.31451902,-0.04214967,-0.055283263,9.975,-71.8125,-14.925,141.82603,-30.865923,-1.088633,0.17578122,0.19998333,0.7033967,0.6590452,984.3808
1747655903665,0.51206404,5.4699926,11.576476,-0.52282387,-0.2773326,-0.055283263,9.84375,-71.887505,-15.000001,141.8896,-30.46288,-0.9850218,0.17383797,0.19557443,0.7036024,0.66066223,984.40204
1747655903687,0.7585248,4.4147577,13.677374,-0.3456731,-0.0140498895,-0.1621846,9.993751,-71.5875,-14.925,141.98207,-29.86723,-0.71456003,0.17131178,0.18942754,0.70363724,0.66307175,984.40204
1747655903708,-0.43788654,4.220939,12.234502,0.04772381,0.21563527,-0.06994402,10.2375,-71.606255,-15.01875,142.21455,-29.344082,-0.80479115,0.16871573,0.1887771,0.70340765,0.6641655,984.4333
1747655903732,0.69152576,4.4315076,9.578469,0.18028148,-0.23457208,0.009468404,10.425,-71.325005,-15.6,142.26828,-29.458538,-0.94773775,0.1691413,0.1899865,0.70319206,0.66394067,984.4333
1747655903754,1.4763715,4.4195433,8.673982,0.012293654,-0.35857764,-0.14385866,10.462501,-71.137505,-15.750001,142.33437,-29.579967,-0.56353736,0.17226267,0.18844847,0.702222,0.6646029,984.4638
1747655903776,0.930808,4.1180477,7.7910304,-0.2589303,0.031154104,-0.2556469,10.368751,-71.15625,-15.806251,142.56703,-29.51222,-0.3330268,0.17335667,0.18601514,0.7004536,0.6668663,984.4638
1747655903798,0.2943172,4.0151563,8.408379,-0.39209884,0.18631376,-0.26480988,10.25625,-70.631256,-16.181252,143.03123,-28.986477,-0.66168547,0.1692998,0.18439002,0.6993522,0.66951054,984.45233
1747655903820,-0.17706887,3.9984066,8.834301,-0.20517421,0.1875355,-0.22693627,10.293751,-70.4625,-16.275002,143.3279,-28.583267,-1.0204355,0.16523726,0.18358895,0.6986874,0.6714371,984.45233
1747655903842,-0.42831525,4.197011,7.8987074,0.11797326,0.055588696,-0.14935644,10.481251,-70.03125,-16.48125,143.62474,-28.449047,-1.3681239,0.16282594,0.18437052,0.6975625,0.6729798,984.4357
1747655903865,-0.2416751,4.328616,6.15434,0.27130032,-0.02565632,-0.06750056,10.668751,-69.8625,-16.21875,143.7719,-28.677471,-1.4621701,0.16385609,0.18608212,0.6964463,0.6734145,984.4357
1747655903887,0.31585258,4.4075794,5.3814583,0.13324489,0.04886918,-0.09193515,10.89375,-69.95625,-15.975,143.85158,-28.978102,-1.4882158,0.16590305,0.18833137,0.6953272,0.6734445,984.4233
1747655903908,0.040677983,4.345366,5.828916,0.036728244,0.10995566,-0.13469568,11.4375,-69.825005,-16.10625,143.95927,-29.151863,-1.5970107,0.16610488,0.18979225,0.69454193,0.6737949,984.39594
1747655903930,-0.42592242,4.4075794,6.6448684,0.07154754,0.07941242,-0.088269964,11.793751,-69.5625,-16.10625,144.17403,-29.249462,-1.879912,0.16543396,0.19135332,0.69362617,0.6744614,984.39594
1747655903951,-0.7106683,4.536792,6.7908306,0.19616395,-0.009162972,-0.0058032153,12.0,-69.637505,-16.181252,144.25838,-29.378744,-1.9940842,0.16594632,0.19301581,0.6929087,0.6745993,984.3759
1747655903973,-0.36370903,4.766503,6.2787666,0.22548546,-0.10445788,0.07788526,11.981251,-69.506256,-15.76875,144.25063,-29.62825,-1.9769524,0.16783392,0.19432727,0.6926003,0.67407227,984.3759
1747655903995,0.34456646,5.0656056,6.2979093,0.10758856,-0.14538582,0.08704823,12.093751,-69.506256,-15.375001,144.12383,-29.943375,-1.7544975,0.17025042,0.19482902,0.6926054,0.6733158,984.3674
1747655904016,0.11485548,5.383851,7.496713,-0.03291034,-0.067195125,0.03695732,12.4875,-69.506256,-15.243751,144.03409,-30.054083,-1.5506321,0.1721954,0.19429053,0.69274706,0.67283094,984.3674
1747655904038,-0.20817557,5.5106707,8.733803,-0.07628174,-0.021991132,0.08155045,12.675,-69.43125,-15.3,143.976,-30.04495,-1.4428529,0.17245659,0.193702,0.69305086,0.6726208,984.35394
1747655904059,0.047856454,5.6374903,10.131211,-0.087888174,-0.0537561,0.09987639,13.106251,-69.39375,-15.450001,143.87099,-29.976562,-1.3624408,0.17232803,0.19288751,0.6937415,0.6721757,984.35394
1747655904081,0.55752766,5.9653068,11.839686,-0.017027855,-0.21868959,0.01924224,12.900001,-69.58125,-16.125,143.71179,-29.85028,-1.109745,0.17284569,0.19115755,0.6944203,0.6718361,984.362
1747655904102,-0.2416751,6.4606214,11.516655,0.031841327,-0.10995566,-0.06994402,12.843751,-69.525,-16.25625,143.74043,-29.844215,-0.8502833,0.17468674,0.18940407,0.69381505,0.6724815,984.362
1747655904123,-0.2727818,6.5539412,10.707881,-0.24488042,-0.043982264,-0.05650499,12.543751,-69.4875,-16.06875,143.82745,-29.827946,-0.8032216,0.1744666,0.18880123,0.69342065,0.6731147,984.3942
1747655904145,0.38763726,6.053841,13.081561,-0.4825068,-0.035430156,-0.18173227,12.525001,-69.168755,-15.95625,143.95096,-29.368338,-0.7727122,0.17163403,0.18505104,0.69336265,0.6749416,984.45795
1747655904169,-1.146162,5.1086764,13.143775,-0.1098793,0.12400555,-0.24159703,12.69375,-68.64375,-16.29375,144.35713,-28.685843,-1.0348222,0.16741458,0.18278813,0.69245046,0.6775495,984.45795
1747655904190,-1.847259,5.144569,9.958928,0.06055197,-0.19120067,-0.17379104,12.88125,-68.7375,-16.425001,144.63312,-28.648504,-1.2248113,0.16650473,0.18326955,0.6910806,0.67904055,984.457
1747655904212,-1.5122639,4.3094735,8.95155,-0.20334162,-0.4263836,-0.11575887,12.750001,-68.86875,-16.556252,144.84708,-28.611776,-0.98465383,0.16806951,0.18131512,0.68952703,0.6807569,984.457
1747655904235,-1.4955142,3.4360933,9.583255,-0.37255114,0.06902772,0.049174614,13.181251,-68.5875,-16.987501,144.97464,-28.295847,-0.7110913,0.16743636,0.17691961,0.6890007,0.6825998,984.44916
1747655904256,-1.2035898,3.17049,9.738789,-0.27236933,0.2083049,0.22021675,13.106251,-68.7375,-17.4375,144.90897,-27.850304,-0.79583097,0.16287877,0.1749787,0.69105136,0.68212974,984.44916
1747655904279,-0.5910272,3.1728828,8.939586,0.0410043,0.09773836,0.3008509,13.200001,-68.08125,-18.2625,144.39636,-27.408136,-0.93933344,0.16046837,0.17445496,0.6938796,0.6799606,984.43964
1747655904300,-0.58624154,3.2805598,7.1282187,0.2511418,0.043982264,0.31245732,13.106251,-67.9875,-18.65625,144.1218,-27.486135,-0.8827794,0.16121481,0.1753043,0.6957726,0.67762727,984.43964
1747655904320,-0.5886344,3.2973096,5.491528,0.28107417,0.017715078,0.3601048,12.843751,-67.950005,-18.618752,143.63174,-27.85692,-0.7116254,0.16333067,0.17691408,0.69746983,0.6749521,984.40717
1747655904344,-0.0023928226,3.2542388,4.85743,0.1711185,0.09468404,0.39003715,12.95625,-68.0625,-18.018751,143.17163,-28.156609,-0.5510814,0.1657148,0.17879252,0.7000898,0.6711528,984.36835
1747655904364,0.6987042,3.2446675,4.9316072,0.031841327,0.100181825,0.2678642,12.375001,-68.25,-17.60625,142.70113,-28.339872,-0.437589,0.16650191,0.17975166,0.7023628,0.668321,984.36835
1747655904385,0.4019942,3.5605202,5.74756,-0.031077746,0.124616414,0.12064579,12.431251,-68.30625,-17.081251,142.37262,-28.389566,-0.3782364,0.1664094,0.1801305,0.70392877,0.66659224,984.3349
1747655904407,-0.5886344,4.089334,7.070791,0.0184023,0.19120067,0.09193515,12.656251,-68.606255,-16.85625,142.21375,-28.37039,-0.43285045,0.16529721,0.18093616,0.705035,0.6654808,984.3349
1747655904429,-0.31345975,4.6229334,7.32443,0.111253746,0.13133593,0.15424335,12.543751,-68.756256,-17.15625,142.04523,-28.415176,-0.62442863,0.16460878,0.18247285,0.706003,0.66420424,984.3254
1747655904451,0.5982057,5.1613183,7.3435726,0.09414954,-0.013439025,0.035124727,13.05,-69.05625,-17.04375,141.80634,-28.64327,-0.6249497,0.16560923,0.18381809,0.7067557,0.66278267,984.3254
1747655904473,0.33260235,5.4341,8.338987,-0.0054214248,0.083688475,-0.10476331,12.7875,-69.05625,-17.175001,141.82556,-28.726578,-0.629701,0.1660955,0.18432881,0.70651764,0.66277295,984.32684
1747655904495,-0.023928227,5.6374903,8.970692,-0.04329504,0.11911863,-0.20189081,12.731251,-68.943756,-17.00625,141.97997,-28.72726,-0.82356316,0.16517039,0.18521675,0.7058435,0.6634745,984.32684
1747655904516,-0.7393822,5.8504515,9.257831,-0.12331833,-0.02565632,-0.2367101,12.7875,-68.850006,-16.85625,142.24442,-28.681118,-1.0460243,0.16374862,0.18581033,0.7042605,0.66534054,984.34955
1747655904538,-1.1102697,6.1639113,10.143175,-0.27603453,0.11178826,-0.18234314,12.468751,-68.943756,-17.04375,142.53033,-28.547112,-1.1894832,0.16165005,0.18504976,0.70287156,0.66753083,984.34955
1747655904560,-1.3399807,6.2261243,11.341979,-0.25831944,0.1802051,-0.10476331,12.675,-68.8125,-17.00625,142.75119,-28.268589,-1.4330413,0.15833102,0.18466425,0.7025948,0.66872334,984.37665
1747655904584,-0.9810573,6.4008007,11.9306135,0.011682789,-0.18325943,0.019853106,12.7875,-68.68125,-16.95,142.92023,-27.878923,-1.7694287,0.15616201,0.18390845,0.7025128,0.6695274,984.40326
1747655904605,0.19381863,6.0155563,11.466406,0.10636683,-0.433714,0.053450666,12.95625,-68.4375,-16.96875,142.90019,-27.920616,-1.5086879,0.15869015,0.18237375,0.7021871,0.6696943,984.40326
1747655904627,1.375873,5.3359947,11.129018,0.1485165,-0.36651886,-0.016798781,13.181251,-68.325005,-16.931252,142.86815,-28.048136,-0.98779285,0.16264741,0.18021049,0.70153224,0.67001677,984.4135
1747655904648,1.847259,4.4745784,10.480563,0.09414954,-0.16004658,-0.14446951,12.69375,-68.475006,-16.96875,142.91418,-28.193218,-0.570554,0.16567415,0.17889795,0.7005393,0.67066556,984.4135
1747655904669,1.6151553,3.7040894,10.202995,-0.07689261,-0.1508836,-0.32589635,12.637501,-68.4375,-17.081251,143.26683,-28.225498,-0.40913102,0.16677068,0.17791073,0.6986698,0.6726037,984.42035
1747655904689,1.1940185,3.1680973,10.47817,-0.13614649,-0.25778493,-0.38209593,12.562501,-68.193756,-16.85625,143.70207,-28.061184,-0.3528835,0.166785,0.17597798,0.69639695,0.6754597,984.42035
1747655904711,1.1318051,2.9168508,9.875179,-0.09277509,-0.27855435,-0.41447175,12.50625,-68.11875,-17.1375,144.32368,-27.81582,-0.2102863,0.16709927,0.17278521,0.69304943,0.6796363,984.4218
1747655904732,0.59342,2.926422,8.482556,-0.14530946,-0.12950334,-0.41630435,12.356251,-67.875,-17.175001,144.85056,-27.647594,-0.16860308,0.16711506,0.17077836,0.6902023,0.68302864,984.4218
1747655904755,0.11485548,3.1776686,7.7551384,-0.2607629,0.16249003,-0.40591964,12.356251,-67.575005,-17.15625,145.35413,-27.393225,-0.36628476,0.16515331,0.16970137,0.68785053,0.6861395,984.4079
1747655904778,-0.9762716,3.5940197,7.2693954,-0.15019637,0.26633704,-0.35338527,12.281251,-67.51875,-17.25,146.05835,-26.971916,-1.1137755,0.15922473,0.17063764,0.68510544,0.6900441,984.4079
1747655904799,-1.0624132,3.790231,6.5539412,0.058719378,-0.0042760535,-0.24281874,12.450001,-67.106255,-16.95,146.432,-26.892658,-1.5150212,0.1569403,0.17204034,0.683379,0.69192845,984.39374
1747655904822,-0.7680961,3.9481573,6.04427,0.15095995,-0.18264857,-0.19700389,13.087501,-66.918755,-17.19375,146.72124,-27.002893,-1.5822215,0.15811244,0.17276402,0.6810253,0.6937993,984.39374
1747655904844,-0.6867401,4.132405,5.9820566,0.091706075,-0.15638138,-0.15118903,13.06875,-66.76875,-17.38125,146.96286,-27.177725,-1.5109092,0.1599322,0.17296094,0.67928666,0.69503653,984.37836
1747655904866,-0.34217364,4.2999024,6.984649,0.053221595,-0.06475167,-0.060781047,13.500001,-66.525,-17.400002,147.16798,-27.304316,-1.4389522,0.16124356,0.17296936,0.67793876,0.69604677,984.37054
1747655904888,-0.15792629,4.546363,7.432107,0.12041672,0.040317077,-0.01924224,13.181251,-66.637505,-17.5125,147.23639,-27.390034,-1.4292836,0.16187434,0.17354007,0.6774675,0.6962171,984.37054
1747655904911,-0.43070808,4.800002,7.597212,0.18639012,-0.047647454,0.036346454,12.731251,-66.8625,-17.15625,147.24786,-27.648716,-1.4856423,0.16300993,0.17513415,0.6771621,0.69585,984.36835
1747655904932,-0.5407779,4.9842496,8.200203,0.20593779,-0.13622284,0.09926552,12.281251,-67.21875,-16.85625,147.18979,-27.88322,-1.3688115,0.16504477,0.17588353,0.6770179,0.69532144,984.36835
1747655904954,-0.77766734,5.3790655,8.9108715,0.26213735,-0.03604102,0.19700389,12.243751,-67.350006,-16.987501,147.04839,-28.142628,-1.1863133,0.16806228,0.1767999,0.6774191,0.69397414,984.37054
1747655904975,-0.22731815,5.709275,9.2793665,0.3409389,-0.102014415,0.27397284,12.243751,-67.55625,-16.85625,146.79366,-28.469965,-1.0385315,0.17152263,0.17863919,0.6786293,0.69146967,984.37054
1747655904997,0.715454,5.9413786,9.51147,0.2945132,-0.24006985,0.22571453,12.150001,-67.74375,-16.78125,146.47234,-28.861866,-0.7775942,0.17539863,0.17931697,0.67952144,0.68944275,984.384
1747655905018,1.4069797,5.8097734,9.994821,0.114308074,-0.15515965,0.040622506,11.962501,-67.912506,-16.725,146.15613,-29.27401,-0.26377296,0.17914344,0.17884876,0.679795,0.6883309,984.384
1747655905040,0.2632105,5.814559,11.38505,-0.0035888306,0.37018406,-0.07971785,11.775001,-68.231255,-15.937501,146.14427,-29.389769,-0.18011852,0.17950389,0.17924778,0.6796576,0.688269,984.3974
1747655905062,-1.5960127,6.4343,10.581061,0.123471044,0.54489136,0.021685699,11.53125,-68.775,-15.76875,146.18613,-29.424145,-0.8167885,0.17521355,0.18439746,0.68033415,0.687345,984.3974
1747655905082,-1.2490535,6.216553,9.930214,0.02451095,0.04459313,0.06139191,11.306251,-69.0,-15.281251,146.12692,-29.552671,-1.321736,0.17379375,0.18697628,0.6808456,0.68650186,984.42206
1747655905104,-0.7106683,4.898108,11.46162,-0.15997021,-0.12828161,0.0051923506,11.15625,-69.3375,-15.000001,146.08038,-29.52271,-1.2367731,0.17408454,0.18580674,0.6810309,0.686562,984.44305
1747655905126,-1.4763715,3.991228,11.413764,-0.1343139,0.24740024,0.060781047,10.875,-69.450005,-15.000001,146.08089,-29.317266,-1.1398478,0.17282085,0.18446767,0.6814081,0.68686795,984.44305
1747655905147,-2.1750758,3.8763726,10.009177,-0.19906557,0.3262018,0.20616686,10.9125,-69.412506,-14.437501,145.95071,-29.051418,-1.5136093,0.16840333,0.18564631,0.6833715,0.6856961,984.4445
1747655905170,-0.9738788,3.871587,9.887143,-0.23388486,-0.062308207,0.30329436,10.9125,-69.09375,-14.55,145.47878,-28.638176,-1.6753714,0.16516864,0.18459414,0.68643576,0.6837033,984.4445
1747655905191,-0.5838487,3.751946,9.262616,-0.23083054,-0.21807873,0.2800815,10.762501,-69.3375,-14.475,145.1342,-28.361214,-1.3443247,0.16491112,0.18149449,0.6885278,0.68249065,984.43524
1747655905212,-0.62452674,3.4743786,8.700303,-0.3352884,0.0018325944,0.33933538,10.575001,-69.65625,-14.718751,144.79045,-28.041492,-0.9874784,0.1642004,0.17720512,0.6912963,0.680989,984.43524
1747655905233,-0.30388847,3.397808,8.642876,-0.27420193,0.24923283,0.41630435,10.087501,-69.675,-15.1125,144.35548,-27.652609,-0.8495543,0.16166505,0.17511927,0.6945179,0.6788538,984.41595
1747655905254,0.31106696,3.4337006,8.195417,-0.045127634,0.27855435,0.41080657,10.087501,-69.543755,-15.39375,143.82979,-27.369638,-0.8988796,0.15911949,0.17488365,0.6980974,0.6758378,984.41595
1747655905278,0.43070808,3.6203406,6.7812595,0.2212094,-0.056199558,0.28619015,9.731251,-69.375,-15.50625,143.33757,-27.362461,-0.9202356,0.15940715,0.1759828,0.7011567,0.6723084,984.3979
1747655905299,0.1794617,3.749553,5.771488,0.28351763,-0.27427828,0.21105379,8.85,-69.39375,-15.150001,142.77586,-27.847906,-0.39577708,0.16384867,0.17626345,0.70220387,0.6700706,984.3979
1747655905321,0.25842485,3.7830527,5.5657053,0.17600541,-0.1508836,0.18234314,8.212501,-69.450005,-14.587501,142.53844,-28.134998,-0.0075459494,0.16751784,0.17612009,0.70268595,0.6686942,984.37665
1747655905343,0.3493521,3.9361932,6.3194447,0.07276927,0.021991132,0.13164136,7.65,-69.84375,-14.250001,142.33089,-28.294333,0.18573485,0.16951224,0.1763889,0.7036076,0.6671498,984.37665
1747655905366,0.2632105,4.1587257,7.1042905,0.08804089,0.01282816,0.047952887,7.3500004,-70.05,-14.118751,142.18202,-28.387213,0.24338725,0.17012092,0.17686534,0.7041423,0.6663041,984.3554
1747655905388,0.1698904,4.45065,7.259824,0.15340342,0.077579826,0.025961753,7.4625,-69.975006,-14.26875,142.11638,-28.499613,0.2541617,0.17071983,0.17780212,0.70428336,0.6657523,984.3625
1747655905412,0.06699903,5.0177493,7.60439,0.07765619,0.0048869182,-0.032070402,7.3125005,-70.293755,-14.137501,142.08199,-28.764778,0.15790695,0.17162912,0.17995423,0.70406324,0.6651729,984.3625
1747655905434,0.1363909,5.087141,9.142975,0.026343543,0.048258316,-0.06994402,7.33125,-70.4625,-13.931251,142.144,-28.862532,0.12194779,0.17193209,0.18041661,0.70365655,0.6653996,984.3637
1747655905455,0.023928227,5.194818,9.896714,0.11064288,0.13316852,-0.09071342,7.18125,-70.425,-14.062501,142.2357,-28.914951,-0.020691372,0.17151566,0.18141997,0.70321786,0.66569805,984.3637
1747655905476,-0.15074782,5.395815,10.157532,0.18700098,0.06780599,-0.08888082,7.2375,-70.8,-14.025001,142.3445,-29.058302,-0.19867341,0.17155592,0.18359904,0.70238876,0.66596544,984.3942
1747655905497,-0.5024927,5.9246287,9.875179,0.18883358,0.13255766,-0.08704823,7.2187505,-70.725006,-14.343751,142.45198,-29.266705,-0.34626472,0.17202432,0.18569717,0.70161563,0.66607785,984.3942
1747655905520,-1.0217353,6.661618,9.743574,0.049556404,0.08735366,-0.065667965,7.0875,-70.575005,-14.043751,142.59634,-29.54337,-0.6633542,0.17188388,0.1883978,0.70085675,0.6661546,984.40594
1747655905542,-0.71306115,6.735796,10.1599245,-0.09155336,-0.12095123,-0.03940078,6.9,-70.425,-14.1,142.6702,-29.577168,-0.7811339,0.17149897,0.18901306,0.7003646,0.666597,984.40594
1747655905564,0.45942193,6.108876,10.942378,-0.18929173,-0.37934703,-0.07238748,6.6937504,-70.537506,-13.593751,142.73425,-29.474346,-0.62671393,0.17224652,0.18670844,0.6998558,0.66758746,984.4196
1747655905586,2.1367905,4.8909297,12.41875,-0.1966221,-0.2547306,-0.18356487,6.7125,-70.3125,-13.968751,142.8992,-29.185091,-0.1277646,0.17368208,0.18172413,0.69869906,0.66979885,984.4379
1747655905609,2.7302105,4.0438704,12.815958,0.008628465,0.19730933,-0.3753764,6.675,-70.068756,-13.931251,143.16913,-28.950638,-0.010571709,0.17284878,0.18022418,0.697326,0.6718474,984.4379
1747655905631,0.6771688,3.3044882,10.025927,0.2438114,0.2290743,-0.56291187,6.39375,-70.0875,-14.137501,143.99803,-29.022629,-0.7614021,0.17042598,0.18379207,0.6938954,0.6750441,984.4467
1747655905654,0.2009971,3.1465619,8.640483,0.111253746,-0.022601997,-0.539699,6.525,-69.637505,-14.156251,144.68604,-29.197115,-1.2370943,0.16972013,0.18661052,0.69020176,0.6782279,984.4467
1747655905677,-0.02871387,2.8594232,8.353344,-0.11598795,0.019547673,-0.49999282,6.525,-69.46875,-13.81875,145.35124,-29.192297,-1.5147083,0.1687435,0.18722089,0.6858359,0.6827175,984.4299
1747655905699,-0.7106683,2.7230322,7.9154572,-0.21006113,0.14782928,-0.37659815,6.8250003,-69.15,-13.950001,146.22572,-28.863731,-2.030903,0.16550489,0.18707761,0.68257046,0.6868098,984.4299
1747655905721,-1.026521,3.048456,7.649854,-0.17829616,0.15271619,-0.20922118,7.1625004,-69.0,-13.762501,146.69545,-28.511953,-2.5001464,0.1613745,0.18713023,0.6808073,0.68952304,984.4128
1747655905743,-1.1844472,3.6514473,7.0396843,-0.03718639,0.02443459,-0.0876591,7.2000003,-68.7375,-13.762501,146.88802,-28.345388,-2.7457972,0.15923436,0.18734695,0.68014944,0.6906102,984.4128
1747655905765,-1.2323036,4.074977,6.381658,0.082543105,-0.13683371,0.03940078,7.6312504,-68.5875,-14.2875,146.9625,-28.343401,-2.775677,0.15947032,0.18737282,0.67963934,0.6910507,984.39886
1747655905786,-0.7298109,4.4985065,5.948557,0.08071051,-0.1472184,0.11270455,7.8562503,-68.55,-14.325001,146.90874,-28.458158,-2.6121871,0.16124643,0.18706909,0.6796795,0.69068116,984.3757
1747655905807,-0.46899325,4.855037,5.692525,-0.053679742,-0.014660755,0.08032872,7.8375,-68.5875,-14.681251,146.78293,-28.575138,-2.4207947,0.16268452,0.1868128,0.6802203,0.6898804,984.3757
1747655905829,-0.50488555,4.9172506,6.63769,-0.20150901,-0.02443459,0.053450666,7.7250004,-68.71875,-14.6625,146.67422,-28.571047,-2.3509762,0.16230482,0.18605761,0.6807837,0.6896182,984.3647
1747655905850,-0.32303107,4.8287163,8.147561,-0.12881611,0.045203995,0.08277218,7.3500004,-68.83125,-14.45625,146.54556,-28.31049,-2.2836232,0.16123661,0.18481632,0.68152064,0.6894747,984.3647
1747655905872,-0.5479564,4.8047876,8.037491,0.094760396,0.068416856,0.10720677,6.9750004,-68.662506,-14.212501,146.39879,-28.272863,-2.304648,0.16064994,0.18492399,0.6824704,0.6886428,984.3774
1747655905894,-0.4426722,5.1182475,7.312466,0.17417282,0.010384701,0.18417573,6.7500005,-68.775,-14.19375,146.22653,-28.460257,-2.286742,0.16162357,0.18615566,0.6831861,0.68737227,984.3774
1747655905914,0.18185452,5.3647084,7.834101,0.13568833,0.051923506,0.17012584,6.4500003,-68.625,-14.212501,145.99811,-28.677195,-2.1969838,0.16341089,0.18747237,0.6843516,0.6854297,984.37445
1747655905937,0.41156548,5.3240304,8.8701935,0.14240785,0.124616414,0.120034926,6.3187504,-68.606255,-13.875001,145.79132,-28.856825,-2.1567383,0.16424675,0.1886639,0.6852432,0.6840107,984.37445
1747655905959,0.24885355,5.24746,9.741181,0.2627482,0.11362085,0.13469568,6.3187504,-68.662506,-14.025001,145.5522,-29.157635,-2.2289412,0.16507609,0.1908899,0.6861268,0.6823056,984.3835
1747655905981,0.55752766,5.4556355,9.51147,0.31100652,0.009162972,0.11209369,5.8875003,-68.83125,-13.8,145.39348,-29.477007,-2.2219746,0.16734134,0.19343255,0.68667054,0.6804883,984.3835
1747655906002,0.74895346,5.7284174,9.530613,0.13935353,-0.023212861,0.029016078,5.8875003,-68.943756,-13.762501,145.26662,-29.836737,-2.0964167,0.16944447,0.19456504,0.68671536,0.67959917,984.3991
1747655906023,0.12921242,6.178268,9.9756775,-0.046349365,0.16859868,-0.01802051,5.9625,-69.037506,-13.875001,145.25029,-29.913906,-2.1192074,0.16973643,0.1951873,0.68675166,0.6793111,984.3991
1747655906045,-0.3182454,6.1710896,10.626525,-0.14775293,0.11362085,-0.02535089,5.625,-69.356255,-13.725,145.25812,-29.83161,-2.305827,0.16770202,0.19578493,0.68713665,0.6792551,984.40985
1747655906067,-0.5192425,5.453243,11.550155,-0.1392008,0.0067195124,-0.0033597562,5.8125,-69.20625,-13.762501,145.27339,-29.663424,-2.41266,0.16621885,0.19514379,0.6874171,0.67952037,984.4255
1747655906089,-0.8063812,4.981857,11.58844,0.0074067353,0.09773836,0.021685699,5.6625004,-69.506256,-14.19375,145.27406,-29.497847,-2.4300668,0.16520445,0.19448051,0.6877155,0.67965597,984.4255
1747655906113,-1.39023,4.7018967,9.365508,-0.03291034,0.023212861,0.024740024,5.5687504,-69.9,-14.343751,145.2357,-29.490814,-2.6123655,0.1640853,0.19576012,0.6881597,0.6791098,984.43915
1747655906135,-1.0863415,4.2017965,9.394221,-0.24732387,-0.1838703,0.041233372,5.6062503,-69.918755,-14.56875,145.20923,-29.42281,-2.6371799,0.16332856,0.19431281,0.6885586,0.6793036,984.43915
1747655906157,-0.61734825,3.8165522,9.925428,-0.35056004,-0.262061,0.017409647,5.86875,-69.881256,-14.64375,145.1637,-29.045336,-2.3635135,0.16275597,0.19054237,0.68898535,0.68007594,984.43915
1747655906178,-0.8350951,3.5413775,9.757931,-0.44524407,-0.14538582,0.026572619,6.1312504,-69.1125,-14.718751,145.14873,-28.349777,-1.9879115,0.16093004,0.18529375,0.6896169,0.6813194,984.43915
1747655906200,-0.7920243,3.2997024,10.0881405,-0.43913543,-0.059253883,0.07238748,6.1125,-68.943756,-14.718751,145.12881,-28.077753,-1.909199,0.15906374,0.18225263,0.69031805,0.6818678,984.4467
1747655906223,-0.8781659,3.1633115,9.741181,-0.13370302,0.027488915,0.16951497,5.8875003,-68.475006,-14.775001,144.96127,-27.391846,-1.7877723,0.15605411,0.17866945,0.69193715,0.6818705,984.4467
1747655906245,-0.73459655,3.290131,8.149954,0.19921827,-0.10690133,0.2922988,6.0375004,-68.287506,-15.20625,144.7201,-27.311522,-1.6961135,0.15615058,0.17798223,0.69376135,0.6801724,984.44965
1747655906267,0.0071784677,3.5365918,5.8097734,0.3342194,-0.34269515,0.34177884,6.01875,-68.2125,-15.375001,144.36517,-27.56002,-1.3807738,0.16094951,0.17801268,0.6953961,0.67737055,984.41644
1747655906289,0.53599226,3.792624,5.0105705,0.15157083,-0.2809978,0.27947062,5.7000003,-68.15625,-15.4875,143.97055,-27.932928,-0.8266481,0.1656942,0.17712235,0.6964788,0.6753447,984.41644
1747655906311,0.66999036,3.8356948,5.4843497,-0.0353538,-0.033597562,0.14385866,5.2875004,-68.287506,-15.750001,143.50987,-28.168829,-0.18807237,0.16801657,0.17604713,0.6975479,0.67394716,984.3857
1747655906336,0.3278167,3.7328033,6.690332,-0.06284271,-0.12889247,0.012522728,4.8187504,-68.512505,-15.6,143.34914,-28.105928,-0.04990456,0.168309,0.1747928,0.6984802,0.6732347,984.3857
1747655906357,-0.040677983,4.0151563,7.283752,0.02451095,-0.11056653,-0.051618073,4.7625003,-68.512505,-15.806251,143.34187,-28.050209,0.10639674,0.16905273,0.17364356,0.698269,0.6735648,984.3774
1747655906378,-1.0767702,4.57747,7.192825,0.045891218,0.056199558,-0.043065965,4.65,-68.775,-15.4875,143.44496,-28.118864,0.15542972,0.16969343,0.17383872,0.69758147,0.67406553,984.3774
1747655906400,-1.3351951,4.974678,7.7383885,0.030008731,0.15393792,0.023518294,4.6312504,-68.4375,-15.187501,143.4635,-28.174194,-0.017139083,0.16902521,0.17513537,0.69753194,0.67394906,984.37396
1747655906422,-0.8422736,5.4795637,8.597412,0.10881029,-0.0024434591,0.029016078,4.59375,-68.793755,-15.1125,143.41425,-28.249725,-0.17605603,0.16850819,0.17686497,0.69786745,0.67327917,984.37396
1747655906444,-0.6412765,5.613562,8.872586,0.12896882,-0.16126831,0.0021380268,4.14375,-68.981255,-15.01875,143.38362,-28.43383,-0.14100517,0.16971722,0.1775207,0.69762504,0.6730541,984.37933
