Timestamp,AccX,AccY,AccZ,GyroX,GyroY,GyroZ,MagX,MagY,MagZ,OrientationAzimuth,OrientationPitch,OrientationRoll,GameRotX,GameRotY,GameRotZ,GameRotW,Pressure
1747666369529,-1.2921243,5.020142,9.619147,0.223042,1.9462152,0.6985239,-35.53125,-49.518753,-24.900002,129.58527,-30.240816,-10.213452,0.13242894,0.2394771,0.66983134,0.6902458,0.0
1747666369550,0.19621146,5.4173503,8.085348,0.3079522,2.0207407,0.49327332,-35.325,-49.518753,-25.706251,128.17677,-29.605299,-9.829324,0.12950735,0.23554686,0.6844815,0.6776655,0.0
1747666369571,0.09332009,5.690132,6.991828,0.07582359,1.6719369,0.23793183,-34.893753,-49.575,-25.968752,126.239586,-31.236792,-8.629819,0.14222032,0.24345313,0.69255066,0.6639861,0.0
1747666369591,-0.78723866,5.7786665,7.5996046,-0.20517421,0.98654664,0.088269964,-34.21875,-49.500004,-26.718752,124.78431,-32.8975,-8.381475,0.14867379,0.25232354,0.69764346,0.65385205,0.0
1747666369611,-1.9238294,5.4867425,7.015756,-0.7653372,-0.2761109,0.11636974,-33.037502,-49.275,-27.825,124.031334,-33.629818,-8.879048,0.14740397,0.2591823,0.6992316,0.64974743,0.0
1747666369631,-1.4452649,5.7355957,8.202596,-1.2039381,-0.8979712,0.11026109,-32.15625,-48.862503,-28.237501,123.86919,-33.24727,-9.066937,0.14439942,0.25465748,0.7000247,0.6513554,0.0
1747666369651,-1.3208381,5.613562,9.078369,-1.4177408,-1.0488548,-0.035124727,-31.837502,-48.225002,-28.500002,123.65794,-32.163525,-8.090823,0.14349873,0.24195239,0.7015756,0.6547205,985.8022
1747666369671,-1.2131611,5.4053864,10.497313,-1.2442552,-1.1740822,-0.29352054,-31.781252,-47.475002,-28.781252,123.696434,-30.606844,-6.970377,0.14047089,0.22569369,0.7023886,0.6602883,985.8022
1747666369692,-1.6031911,5.5537415,10.9375925,-0.6474403,-1.4391974,-0.45417798,-32.175003,-46.6875,-28.95,124.13525,-28.980106,-5.846071,0.13902302,0.20979251,0.70066506,0.66762877,985.8742
1747666369712,-1.4691931,5.682954,10.322637,-0.107435845,-1.301142,-0.32895067,-32.925003,-45.862503,-28.743752,124.84939,-28.058878,-4.8537846,0.14320785,0.19768642,0.69522345,0.6760739,985.8742
1747666369733,-0.68195444,5.639883,9.623933,0.3617083,-0.66095567,-0.1640172,-33.65625,-45.112503,-28.575,125.38083,-27.999138,-4.0330524,0.14997059,0.19443567,0.69150305,0.6793579,985.9394
1747666369755,-0.8470592,5.8672013,10.320244,0.68852097,-0.17226386,-0.10537417,-34.2,-44.68125,-27.487501,125.674065,-28.706156,-3.399463,0.15647013,0.19634832,0.68883324,0.68005383,985.9394
1747666369776,-1.1126626,5.503492,10.554741,1.0354922,-0.20891576,9.162972E-4,-35.268753,-44.737503,-26.400002,125.96839,-29.984356,-3.4739933,0.16288224,0.2029391,0.68576205,0.67971724,985.9755
1747666369796,-0.40917268,5.252246,9.676575,1.1753802,-0.31276277,0.051618073,-35.53125,-45.112503,-25.706251,126.10446,-30.989685,-3.3363616,0.16998461,0.20785022,0.6833765,0.6788962,985.9755
1747666369817,0.36131623,5.6039906,8.717052,1.175991,-0.20647229,-0.053450666,-35.475002,-45.881252,-25.875002,126.14509,-32.17344,-2.9043329,0.17964192,0.21225534,0.68102217,0.67741066,986.0175
1747666369838,-0.016749758,5.838487,8.018349,1.0507637,-0.11484258,-0.11759147,-35.98125,-46.59375,-25.5375,126.22102,-33.459995,-2.5342252,0.18960243,0.21753938,0.67817885,0.6758706,986.0175
1747666369859,-0.36610186,5.534599,7.4679995,0.7270054,-0.020158539,0.06994402,-36.35625,-47.60625,-25.181252,126.32155,-34.651455,-2.4755821,0.19876832,0.22544509,0.67483544,0.67399025,986.0424
1747666369880,0.15074782,5.4029937,8.209774,0.46311185,0.06902772,0.1517999,-36.600002,-48.187504,-25.1625,126.24788,-35.50195,-2.43469,0.20351915,0.22942664,0.67406505,0.6719968,986.0424
1747666369900,-0.009571291,5.534599,8.865408,0.30550876,0.2535089,0.13347395,-37.256252,-48.825,-24.88125,125.997375,-35.983192,-2.257774,0.20578428,0.2310243,0.6747733,0.670046,986.05316
1747666369921,-0.17706887,5.0129633,9.480363,0.27252206,0.23212862,0.1395826,-37.18125,-49.518753,-24.806252,125.831726,-36.06559,-2.3684077,0.20482492,0.23273571,0.6764326,0.6680716,986.05316
1747666369942,0.26799613,4.9770713,8.685946,0.38736463,0.077579826,0.13286309,-37.29375,-49.706253,-24.768751,125.71338,-36.040943,-2.4111123,0.20460247,0.23306072,0.6775572,0.6668859,986.0688
1747666369963,0.9236295,5.003392,7.472785,0.47777262,0.10690133,0.109039366,-37.2,-50.343754,-24.618752,125.55348,-36.24519,-2.2111514,0.20707569,0.23374929,0.6781975,0.66522855,986.0688
1747666369984,0.98584294,5.13739,7.4823565,0.48388126,0.16126831,0.11514801,-37.29375,-50.49375,-24.45,125.33213,-36.6724,-1.9452611,0.21057682,0.23547424,0.6787287,0.66297555,986.0815
1747666370006,1.5002998,5.096712,7.728817,0.47838348,0.08918626,0.13469568,-36.84375,-50.475002,-24.45,124.9401,-37.327713,-1.4990082,0.21508498,0.23724328,0.6796166,0.6599813,986.0778
1747666370026,1.6582261,5.1493545,7.34118,0.42096218,0.11911863,0.03695732,-36.91875,-50.943752,-24.525002,124.663574,-37.727207,-1.0670593,0.22007741,0.23807976,0.6804997,0.6571181,986.0778
1747666370048,0.6795616,5.0368915,7.4177504,0.2560287,0.06597339,0.009468404,-36.825,-50.943752,-24.375002,124.470856,-38.13378,-0.7045404,0.22293028,0.23884365,0.68073833,0.6556303,986.0861
1747666370069,0.43070808,4.723432,7.6259255,0.10881029,-0.09651663,0.058337588,-36.956253,-51.16875,-24.281252,124.41388,-38.226162,-0.53723764,0.22419262,0.23867907,0.68094444,0.65504557,986.0861
1747666370090,0.38524446,4.6612186,7.463214,0.0067958706,-0.171653,0.05222894,-37.18125,-51.656254,-24.45,124.36193,-38.124237,-0.22177199,0.22541901,0.23586674,0.6814189,0.65515,986.09174
1747666370112,0.21535404,4.8215375,7.066005,0.010461059,-0.07941242,0.04978548,-37.143753,-51.693752,-24.6,124.328156,-37.963776,0.08545106,0.22596905,0.23359944,0.6817652,0.6554125,986.09174
1747666370133,0.39960137,4.881358,6.570691,-0.0072540194,-0.09040799,0.042455103,-37.18125,-51.881252,-24.73125,124.28659,-37.87082,0.2595365,0.22633533,0.23239188,0.6820906,0.65537673,986.10345
1747666370155,0.6580262,4.800002,6.582655,0.006185006,-0.18264857,-0.027794348,-37.143753,-51.843754,-24.50625,124.23034,-37.8242,0.47680143,0.22773764,0.23046032,0.6821924,0.6554671,986.10345
1747666370175,0.70588267,4.9986067,6.407979,0.07948878,-0.171653,-0.18356487,-36.975002,-51.487503,-24.300001,124.250854,-37.795204,0.7658923,0.2293422,0.22895494,0.68137205,0.65628797,986.1005
1747666370196,0.5383851,5.608776,6.053841,0.12713623,-0.27794346,-0.25992295,-37.0875,-51.35625,-23.94375,124.68481,-38.020782,1.0271771,0.23212442,0.22866543,0.6787441,0.6581313,986.1005
1747666370217,1.2155539,5.6949177,5.960521,0.13507748,-0.32375833,-0.23182319,-37.10625,-51.3375,-23.775002,124.965935,-38.283363,1.2721523,0.23558113,0.2282983,0.67622143,0.6596257,986.0971
1747666370238,1.6199409,5.757131,5.7786665,0.058719378,-0.37262753,-0.4150826,-37.331253,-51.375004,-23.868752,125.256325,-38.540604,1.6397833,0.23967056,0.22723281,0.6735906,0.6612103,986.0971
1747666370260,0.6723832,6.3720865,5.871987,-0.07261655,-0.30543238,-0.53114694,-37.443752,-51.54375,-23.7,125.78921,-38.717968,1.86632,0.24298127,0.2259422,0.66989976,0.66418713,986.0893
1747666370281,0.30867413,6.9894347,6.216553,-0.17951788,-0.30482152,-0.40897396,-37.03125,-52.0875,-23.925001,126.43059,-38.811302,1.8163496,0.24485445,0.22516325,0.6650082,0.66866434,986.0893
1747666370303,0.6197411,7.1449685,6.812366,-0.1862374,-0.18936808,-0.28741187,-36.84375,-52.256252,-23.7,126.93543,-38.85202,1.7989119,0.24622689,0.22409959,0.6615193,0.6719702,986.07074
1747666370326,0.16510476,7.420143,7.381858,-0.10682498,-0.0036651888,-0.14263692,-37.050003,-52.331253,-23.60625,127.274254,-38.854435,1.8125567,0.24659961,0.22370787,0.6598922,0.67356193,986.07074
1747666370347,0.12203395,7.32443,8.032705,0.117362395,0.09040799,0.14019346,-37.350002,-52.331253,-23.00625,127.37777,-39.004646,1.65088,0.24680299,0.22517131,0.6596155,0.6732708,986.0605
1747666370368,0.55034924,7.207182,7.891529,0.3079522,0.15332706,0.29290965,-37.85625,-52.256252,-22.29375,127.04819,-39.30521,1.7332132,0.24837084,0.22715108,0.6607273,0.670935,986.04486
1747666370390,1.4644074,7.082755,7.800602,0.37087128,0.2272417,0.2122755,-37.85625,-52.256252,-22.21875,126.563705,-39.75148,1.8779168,0.25076944,0.23001845,0.6624073,0.6674,986.04486
1747666370412,1.1006985,6.867401,8.01117,0.36109746,0.042760536,-0.12247839,-38.175003,-52.425003,-21.956251,126.30798,-40.197563,1.9837571,0.25397226,0.23323376,0.66272736,0.6647501,986.0368
1747666370435,0.54317075,7.2382884,8.269595,0.3238347,0.12095123,-0.20983206,-37.987503,-52.7625,-22.087502,126.522606,-40.792744,1.8551977,0.25639218,0.23647952,0.66078645,0.66460645,986.0368
1747666370457,-0.1052842,7.499106,8.243274,0.28657195,0.08124501,-0.0033597562,-37.66875,-52.781254,-22.425001,126.70724,-41.15768,1.6096616,0.2578043,0.24028482,0.659087,0.6643828,986.0268
1747666370479,0.0526421,7.448857,8.16431,0.12530364,0.12400555,-0.035124727,-37.631252,-53.1375,-22.143751,126.6888,-41.524406,1.4376799,0.25864714,0.24265777,0.658786,0.66349065,986.0268
1747666370501,-0.89013004,7.5110703,8.580662,0.04344776,0.091018856,-0.11026109,-37.5,-53.100002,-22.0125,126.7718,-41.638027,1.2112522,0.25800154,0.24474539,0.65813845,0.66361785,986.0124
1747666370521,-1.5146568,7.685746,9.066405,0.13080142,0.18997894,0.0021380268,-37.74375,-53.550003,-21.88125,126.93998,-41.692783,0.8474201,0.25663775,0.24687506,0.6575194,0.6639714,986.0124
1747666370542,-1.4500505,7.4105716,9.399008,0.3513236,0.28160867,0.20616686,-38.04375,-53.850002,-21.768751,126.94459,-41.838745,0.41849914,0.2553504,0.2502904,0.6578813,0.66282964,986.01117
1747666370565,-1.1581261,6.771688,8.724232,0.47594002,0.17592905,0.27336198,-37.875,-53.775,-22.06875,126.72013,-42.154335,0.11575374,0.2555519,0.2542206,0.65883774,0.6603014,986.01117
1747666370586,-1.2442678,6.4558353,7.496713,0.3201695,0.040317077,0.27947062,-37.78125,-53.98125,-22.06875,126.25743,-42.77511,0.052883316,0.2575533,0.25817427,0.65985984,0.65696067,986.0114
1747666370609,-1.3950156,6.216553,7.140183,-0.04696023,-0.009162972,0.33811367,-37.800003,-54.206253,-22.125,125.934746,-42.997944,0.14473978,0.25866863,0.2596994,0.6613721,0.65439564,986.00433
1747666370631,-1.0815558,6.070591,7.3340015,-0.3041343,-0.116675176,0.38881543,-37.893753,-54.300003,-21.900002,125.451195,-42.821033,0.40090698,0.2579993,0.25827333,0.6636035,0.65296376,986.00433
1747666370651,-0.9236295,5.709275,7.499106,-0.45318532,-0.16920954,0.39186975,-38.025,-54.2625,-21.65625,125.02077,-42.36515,0.80732614,0.25670534,0.2543745,0.66645545,0.652099,985.99286
1747666370672,-0.5694918,5.4843497,7.7647095,-0.47456557,-0.17592905,0.31367907,-38.325,-54.093754,-21.6,124.60992,-41.755974,1.2402654,0.25424626,0.24806839,0.6702571,0.65159523,985.99286
1747666370693,-0.3397808,5.515456,7.812566,-0.36949682,-0.14905101,0.18906265,-38.49375,-53.568752,-21.45,124.29938,-41.136547,1.6219633,0.25227818,0.24321231,0.6726651,0.65170944,985.98456
1747666370714,-0.4235296,5.599205,7.609176,-0.19173518,-0.11300998,0.062002774,-38.475002,-53.268753,-21.31875,124.13825,-40.648613,1.8762835,0.2507703,0.23971204,0.6740338,0.6521739,985.98456
1747666370737,-0.6987042,5.7762737,7.123433,0.045280352,-0.06352994,-0.03573559,-38.662502,-53.1375,-21.50625,124.12955,-40.388317,1.9681276,0.2499984,0.23816659,0.6741297,0.65293694,985.9814
1747666370759,-1.0719845,6.056234,6.678368,0.21387903,-0.011606431,-0.043065965,-38.8125,-52.631252,-21.54375,124.22224,-40.39797,1.9117836,0.2503436,0.23935759,0.6732625,0.65326387,985.9814
1747666370781,-1.1102697,6.4414787,5.9581285,0.3097848,0.023823727,0.07422007,-39.225002,-52.48125,-21.28125,124.33166,-40.92385,1.6622704,0.25239506,0.24342561,0.6719007,0.6523727,985.98016
1747666370803,-1.105484,6.4773707,5.6853466,0.25847217,0.09590577,0.16157374,-39.24375,-52.406254,-21.206251,124.23672,-41.340466,1.5713814,0.25403115,0.24653655,0.6716086,0.6508685,985.98016
1747666370824,-0.95712906,6.474978,5.7810597,0.1625664,0.18509203,0.24098615,-39.112503,-52.518753,-20.962502,124.021835,-41.70718,1.4880762,0.2550107,0.24949965,0.672148,0.6487962,985.9777
1747666370846,-0.8925229,6.4941206,6.3314085,0.03978257,0.24495678,0.3149008,-39.15,-52.443752,-21.018751,123.48837,-42.025898,1.349647,0.25480333,0.25250182,0.67414176,0.64563996,985.9738
1747666370869,-0.7393822,6.506085,6.5371914,-0.014584397,0.109344795,0.36926776,-38.9625,-52.593754,-21.150002,123.036476,-42.08833,1.3242606,0.2539689,0.25411537,0.6770377,0.64229673,985.9738
1747666370890,-0.2632105,6.393622,6.384051,-0.03291034,-0.08307761,0.35888305,-38.9625,-52.256252,-21.431252,122.5553,-42.095337,1.5213846,0.2544105,0.25376067,0.6792388,0.63993394,985.9765
1747666370912,0.5168497,6.3720865,6.3194447,-0.029245151,-0.09590577,0.22510368,-39.05625,-52.256252,-21.73125,122.01122,-42.08402,2.008769,0.25603178,0.25220644,0.6813412,0.6376628,985.9765
1747666370933,0.7680961,6.424729,6.3457656,0.03978257,-0.07819069,0.07910699,-39.300003,-52.050003,-21.88125,121.73665,-42.095882,2.3426347,0.25737712,0.25130817,0.6821047,0.6366588,985.9843
1747666370956,0.8757731,6.896115,6.3481584,0.1051451,-0.0061086477,-0.13469568,-40.03125,-52.0875,-21.88125,121.68133,-42.27699,2.5315201,0.25896376,0.25169063,0.68161464,0.636389,985.9843
1747666370977,0.5886344,7.539784,6.788438,0.10575596,0.17104214,-0.26908594,-40.162502,-51.91875,-21.6,121.895546,-42.470695,2.3319826,0.25937638,0.2534125,0.6802295,0.6370195,985.9841
1747666370998,0.43788654,8.035098,7.4919276,0.13874267,0.34025168,-0.28130323,-40.143753,-51.862503,-21.581251,122.19639,-42.680298,1.8292586,0.25839692,0.25660187,0.6787242,0.63774604,985.9841
1747666371020,0.15074782,8.049456,8.817552,0.24258968,0.4300488,-0.28741187,-40.125,-51.99375,-21.6375,122.49372,-42.91742,1.102612,0.25579518,0.26236463,0.6771794,0.6380922,985.9782
1747666371040,0.37567315,8.056634,9.4229355,0.3012327,0.30543238,-0.32589635,-40.18125,-52.18125,-21.46875,122.814026,-43.19336,0.3605007,0.2541561,0.26705983,0.67565614,0.6384141,985.9782
1747666371063,0.70348984,8.489735,10.246066,0.3409389,-0.0048869182,-0.37171122,-39.956253,-52.406254,-21.618752,123.33811,-43.5598,-0.3527866,0.2539372,0.27139485,0.6726679,0.6398271,985.99115
1747666371085,0.8853444,8.537591,10.150353,0.41790786,-0.3970621,-0.4205804,-39.825,-53.062504,-21.862501,123.86215,-43.87829,-0.61156857,0.25612846,0.27305466,0.6691587,0.6419237,985.99115
1747666371105,0.782453,8.310273,9.0951185,0.44356418,-0.59559315,-0.3478875,-39.75,-53.86875,-22.181252,124.79033,-44.496124,-0.3640633,0.26227328,0.2730769,0.6633738,0.6454277,986.0102
1747666371126,0.9595219,8.054241,8.178668,0.36903867,-0.47769627,-0.25747952,-39.825,-54.018753,-21.956251,125.05896,-44.720932,-0.17632733,0.26656273,0.2726481,0.6600987,0.64720714,986.0102
1747666371149,1.1413764,7.408179,8.154739,0.0721584,0.20219624,-0.2538143,-40.3125,-54.675003,-21.45,125.61035,-45.223442,0.10661634,0.27080938,0.27331978,0.6562001,0.6491225,986.0153
1747666371171,0.9595219,7.396215,9.171689,-0.052458014,0.2913825,-0.33628106,-40.443752,-54.80625,-21.09375,125.89342,-45.25993,-0.29829562,0.26873627,0.2751111,0.65535146,0.65008396,986.0219
1747666371192,0.17706887,7.1138616,9.585648,0.013515383,0.043371398,-0.39858928,-40.0125,-54.787502,-21.0,126.4159,-45.0859,-1.0090744,0.26536235,0.27645805,0.6536434,0.6526133,986.0219
1747666371214,-0.11724831,6.991828,8.975478,0.1918879,-0.16493349,-0.36804602,-39.768753,-54.937504,-21.243752,126.98001,-45.010548,-1.4159241,0.2646361,0.2768658,0.65102893,0.655343,986.02167
1747666371236,0.031106694,6.8482585,7.7647095,0.33788458,-0.108123064,-0.28130323,-39.1875,-55.162502,-21.431252,127.76602,-45.26719,-1.7218549,0.26634002,0.27806664,0.64719975,0.6579319,986.02167
1747666371256,-0.20578274,6.5778694,6.9391856,0.3256673,0.08491021,-0.20189081,-39.037502,-55.518753,-21.2625,128.12021,-45.601776,-1.9591768,0.26791215,0.28036934,0.64473045,0.6587403,986.03485
1747666371277,-0.73459655,6.283552,6.6257257,0.22426373,0.17837252,-0.1065959,-39.24375,-55.95,-20.962502,128.33559,-45.891853,-2.3364656,0.26819772,0.28346398,0.64329654,0.6587015,986.03485
1747666371300,-0.89730847,6.1064835,6.2787666,0.13080142,6.108648E-4,-0.022907428,-39.0,-56.175003,-20.60625,128.44745,-46.079906,-2.6277552,0.2680949,0.28576663,0.64255995,0.65846735,986.02924
1747666371321,-0.8039884,5.6303115,5.584848,0.013515383,-0.26389357,0.053450666,-39.24375,-56.343754,-20.775002,128.49182,-46.17329,-2.6061602,0.2692277,0.2857909,0.64190745,0.658631,986.02924
1747666371342,-0.5623133,5.424529,5.197211,-0.04329504,-0.4251619,0.06444623,-39.300003,-56.381252,-20.90625,128.49895,-46.16898,-2.1793284,0.27107927,0.2837245,0.6414185,0.6592411,986.0263
1747666371362,-0.07178468,5.3790655,5.096712,-0.016416991,-0.37568185,0.054672398,-39.300003,-56.568752,-21.337502,128.51613,-46.123955,-1.6509359,0.27419677,0.27990568,0.64055866,0.66041917,986.0263
1747666371383,0.22971097,5.35753,5.2402816,0.13629921,-0.2150244,0.02046397,-39.787502,-56.568752,-21.075,128.51631,-46.13372,-1.2051363,0.27647635,0.27799702,0.6399631,0.6608522,986.01337
1747666371405,0.16031912,5.582455,5.1182475,0.31283912,-0.14660755,-0.01802051,-39.84375,-56.5875,-20.79375,128.55292,-46.443573,-0.83987147,0.27966863,0.27800754,0.63872266,0.6607047,986.0085
1747666371426,0.18903299,6.070591,4.814359,0.37514734,-0.118507765,0.018631376,-40.0875,-56.49375,-20.643751,128.59029,-46.846718,-0.68633586,0.2828863,0.2793271,0.6373334,0.66011953,986.0085
1747666371448,0.4953143,6.3696938,4.881358,0.3116174,-0.092851445,0.05222894,-39.91875,-56.456253,-20.8125,128.58041,-47.07038,-0.6017747,0.28700733,0.2812596,0.63605803,0.6587488,986.0031
1747666371470,0.3062813,6.73101,5.2642097,0.245644,-0.092851445,0.054672398,-40.2,-56.475002,-20.98125,128.4753,-47.65605,-0.3048925,0.28990847,0.28228948,0.6353242,0.65774536,986.0031
1747666371492,0.31345975,7.0325055,5.788238,0.24075708,0.010995566,0.08277218,-40.143753,-56.5125,-20.8875,128.36382,-48.037003,-0.07362892,0.2923105,0.2832482,0.63487434,0.65670353,986.0036
1747666371514,0.07178468,7.243074,6.4127645,0.2578613,0.14538582,0.0876591,-39.80625,-56.456253,-21.056252,128.21727,-48.32734,-0.0068443245,0.29422772,0.28542092,0.63496065,0.65482044,986.0036
1747666371535,-0.33260235,7.4392858,6.9344,0.25358525,0.17348559,0.110871956,-39.675003,-56.5125,-20.625,128.05528,-48.6123,-0.06005271,0.29508507,0.2877482,0.6352914,0.6530931,985.9963
1747666371556,-0.55034924,7.716853,7.1784678,0.17172936,0.14110976,0.20005822,-39.54375,-56.625004,-21.056252,127.73776,-48.9827,-0.13040906,0.2958638,0.29038247,0.63615227,0.6507326,985.9963
1747666371578,-0.30388847,7.6402826,7.422536,0.028176138,0.029932374,0.2159407,-39.73125,-56.775,-20.98125,127.436295,-49.106262,-0.02330519,0.2963384,0.29129788,0.6373988,0.64888513,986.00214
1747666371599,0.19621146,7.836494,7.874779,-0.15874848,-0.023823727,0.13469568,-39.65625,-56.643753,-21.393751,127.17256,-49.041805,0.20552874,0.2963235,0.2900593,0.63911295,0.64775974,986.00214
1747666371621,0.27038896,8.408379,8.709874,-0.2192241,-0.01527162,0.027183482,-39.881252,-56.531254,-21.35625,127.00461,-48.73054,0.41522482,0.29528457,0.2881234,0.6403033,0.6479225,986.0141
1747666371642,0.043070808,8.568698,9.08794,-0.093996815,0.031154104,-0.057726722,-39.787502,-56.006252,-21.5625,127.0133,-48.461758,0.4384788,0.29355848,0.28628314,0.6410248,0.64880854,986.0141
1747666371664,-0.66041905,8.496913,8.693125,0.06360629,0.16859868,-0.088269964,-39.7125,-55.706253,-21.900002,127.11135,-48.334003,0.2936008,0.2923484,0.2865449,0.64091855,0.6493442,986.0153
1747666371686,-1.3040884,8.329415,8.240881,0.09537126,0.30665413,-0.024129158,-39.525,-55.593754,-21.975,127.21415,-48.36082,-0.055284,0.29086936,0.28861687,0.6408321,0.64917606,986.0153
1747666371708,-1.4189439,8.149954,7.834101,-0.052458014,0.23335035,0.07422007,-39.1875,-55.55625,-22.5,127.17762,-48.42591,-0.7023222,0.2878117,0.29209766,0.64189196,0.6479337,986.0263
1747666371728,-1.579263,7.9154572,7.647461,-0.22350015,0.12705988,0.1499673,-38.943752,-55.518753,-22.5375,127.04917,-48.31172,-0.9216047,0.28571883,0.2923981,0.6432816,0.647346,986.0363
1747666371750,-1.4644074,7.6067834,7.8628154,-0.34994915,0.08185588,0.22937973,-38.4375,-55.275,-22.743752,126.83631,-48.01308,-0.9508381,0.28323808,0.2910267,0.64541376,0.64693177,986.0363
1747666371771,-1.2179468,7.058827,8.025527,-0.34017533,0.046425723,0.2764163,-37.85625,-54.487503,-22.96875,126.44678,-47.480343,-0.7823838,0.28074455,0.28860426,0.64808995,0.6464282,986.0402
1747666371792,-1.0671989,6.491728,7.446464,-0.17890702,0.020158539,0.32467464,-37.893753,-54.16875,-23.475,126.08039,-47.101517,-0.5393679,0.27863833,0.28558058,0.65142435,0.64532995,986.0402
1747666371813,-0.87338024,6.1208405,6.8195443,-0.09521855,0.09773836,0.34910923,-37.912502,-54.018753,-23.6625,125.66289,-46.861988,-0.25523713,0.27782372,0.28402364,0.6540108,0.64375037,986.0422
1747666371834,-0.46899325,5.864808,6.4606214,-0.060399257,0.112399116,0.3234529,-37.818752,-53.7,-23.868752,125.195496,-46.719566,-0.014311551,0.2771596,0.28323737,0.6566538,0.64168906,986.0422
1747666371855,-0.2727818,5.773881,6.1710896,-0.007864884,-0.0,0.25503606,-37.631252,-53.568752,-24.2625,124.56858,-46.595943,0.3324192,0.27688935,0.2824333,0.65937066,0.6393701,986.0297
1747666371877,-0.3589234,5.7355957,5.7547383,0.08071051,-0.103236146,0.21838416,-37.3875,-53.100002,-24.525002,124.26796,-46.6009,0.6430736,0.27781513,0.28160664,0.6606241,0.6380378,986.0297
1747666371898,-0.28235307,5.8241305,5.5920267,0.19738568,-0.06658426,0.22876886,-37.2,-52.687504,-24.50625,123.99954,-46.710533,0.9880953,0.2801102,0.28116032,0.6615334,0.6362866,986.0202
1747666371919,-0.2440679,5.8217373,5.6303115,0.33055422,0.06108648,0.26419902,-37.3125,-52.518753,-24.69375,123.60389,-47.027897,1.3478734,0.28225923,0.28213996,0.66226923,0.6341342,986.0202
1747666371942,-0.04546363,5.8911295,5.383851,0.45272717,0.0537561,0.29107708,-37.237503,-52.29375,-24.656252,123.204605,-47.441895,1.5867097,0.2847782,0.28436288,0.66310024,0.63113964,986.0202
1747666371963,0.2416751,6.1591253,4.7545385,0.42707083,-0.053145237,0.2678642,-37.125,-51.99375,-24.7875,122.789116,-47.94336,1.9174128,0.28912655,0.28722218,0.66372985,0.62719375,986.0202
1747666371983,0.3684947,6.5252275,4.5942197,0.28351763,-0.03054324,0.20983206,-36.956253,-52.0125,-25.143751,122.41653,-48.414745,2.3224478,0.292695,0.288793,0.66395557,0.6245728,986.0009
1747666372004,0.22492532,7.0229344,5.3072805,0.13202316,0.058032155,0.13652828,-37.03125,-51.787502,-24.975,121.99341,-48.850628,2.708731,0.29515362,0.29024085,0.6644928,0.6221687,986.0009
1747666372025,0.2105684,7.393822,6.2237315,0.114308074,0.0012217296,0.088269964,-36.9375,-51.862503,-25.10625,121.8126,-48.98984,2.8044944,0.29593349,0.29106683,0.6649536,0.6209188,985.99725
1747666372046,0.41156548,7.5756764,6.6759753,0.1833358,-0.12583815,0.041844238,-37.0875,-52.10625,-24.806252,121.75182,-49.05639,2.8624706,0.29716578,0.29154596,0.6649197,0.6201414,985.99725
1747666372066,0.54317075,7.7240314,6.74776,0.28290674,-0.30237806,-0.044287696,-37.050003,-52.18125,-24.656252,121.75101,-49.43748,3.2585714,0.30046162,0.29173583,0.6634951,0.6199897,986.0024
1747666372088,0.5312066,7.771888,6.5084777,0.32811075,-0.33108872,-0.092546016,-37.0875,-52.443752,-24.7875,121.82406,-49.60024,3.4135005,0.3032479,0.29183945,0.66188574,0.6203046,986.0024
1747666372109,0.8446664,7.9154572,6.4677997,0.2939023,-0.1404989,-0.18661919,-37.143753,-52.518753,-24.69375,122.154205,-50.150642,3.7409225,0.3082851,0.29299757,0.6581787,0.6212194,986.0046
1747666372129,1.1030912,8.145168,6.8315086,0.245644,0.023823727,-0.2800815,-37.125,-52.4625,-24.993752,122.44824,-50.480488,3.637014,0.30954266,0.29436994,0.6564751,0.6217476,986.0002
1747666372151,1.1916257,8.640483,7.7001033,0.2126573,0.116675176,-0.4156935,-37.29375,-52.7625,-24.993752,122.86084,-50.7473,3.1972113,0.30972576,0.29697046,0.6541687,0.6228497,986.0002
1747666372172,0.9499506,9.257831,8.293523,0.2609156,-0.046425723,-0.56413364,-37.0125,-52.7625,-25.275002,123.46223,-50.98957,2.5431297,0.30919296,0.30064228,0.6502529,0.6254479,986.0075
1747666372194,-0.15074782,9.473185,7.5062847,0.2627482,-0.16676609,-0.5183188,-36.65625,-52.7625,-25.331251,124.25782,-51.275757,1.8917938,0.31003577,0.30377436,0.6446854,0.6292691,986.0075
1747666372216,-0.13878371,9.499506,6.501299,-0.0072540194,0.10079269,-0.2886336,-36.3375,-53.718754,-25.143751,125.45641,-51.695335,0.9640402,0.31041577,0.30620977,0.64045054,0.63221884,986.0114
1747666372236,0.33499518,8.937193,7.070791,-0.38110328,0.46547896,-0.14935644,-36.28125,-54.000004,-25.2,125.67991,-51.537315,0.34736177,0.3083631,0.30737972,0.64010745,0.63300264,986.0114
1747666372257,0.8327023,8.310273,8.793623,-0.6132319,0.35430157,-0.19272783,-36.16875,-54.468754,-24.993752,125.75239,-50.963177,-0.3607233,0.30066246,0.30773106,0.6424633,0.63414866,986.01215
1747666372278,0.62931234,7.865208,9.399008,-0.50755227,-0.100181825,-0.2855793,-35.86875,-54.15,-25.35,126.001854,-50.232407,-0.8336903,0.2948453,0.30538908,0.6437193,0.6367331,986.01215
1747666372299,0.3684947,7.690532,8.889337,-0.22716534,-0.39828384,-0.3100139,-35.34375,-53.756252,-25.725,126.47896,-49.670994,-0.9419171,0.29234675,0.3016441,0.64278245,0.6406051,986.018
1747666372320,0.39481574,7.5062847,7.283752,0.14607304,-0.39828384,-0.2452622,-35.15625,-53.41875,-25.931252,127.0162,-49.460243,-0.82514393,0.2936617,0.2980784,0.6395031,0.6449402,986.018
1747666372341,0.32542387,7.099505,5.8767724,0.2615265,-0.04459313,-0.13591741,-34.8375,-53.30625,-26.081251,127.511765,-49.664288,-0.6980733,0.2961587,0.29779443,0.63683,0.64657253,986.01874
1747666372368,0.43070808,6.384051,5.5106707,0.07887791,0.3817905,-0.03451386,-34.7625,-53.737503,-26.156252,127.60964,-50.02032,-1.1043551,0.29643166,0.301546,0.63588727,0.64563584,986.01434
1747666372390,0.46899325,6.0227346,5.8217373,-0.04329504,0.16982041,-0.06017018,-34.875,-54.35625,-26.456251,127.56411,-50.05185,-1.5123434,0.29403523,0.3041889,0.6367257,0.6446648,986.01434
1747666372482,0.61016977,5.95095,5.1349974,0.16623157,-0.27855435,-0.027183482,-35.456253,-53.9625,-26.362501,128.06253,-49.643524,-0.43128595,0.29870042,0.2949858,0.6336078,0.64984816,985.99335
1747666372503,0.6939186,6.1591253,4.5966125,0.30611962,-0.216857,-0.021074835,-35.456253,-54.112503,-26.38125,128.15446,-49.88624,-0.12649179,0.3018073,0.2945495,0.6320945,0.6500842,985.98553
1747666372524,0.75613195,6.573084,4.462614,0.3012327,0.010384701,-0.01802051,-35.362503,-54.281254,-26.362501,128.2019,-50.25491,0.06496913,0.30557707,0.2959224,0.63035864,0.6493848,985.98553
1747666372545,0.5168497,6.9391856,5.087141,0.22853978,0.08491021,-0.008857539,-35.4375,-54.300003,-25.9125,128.18422,-50.755127,0.030842606,0.30756977,0.29846752,0.6294919,0.64811873,985.9816
1747666372567,0.51206404,7.2909307,5.5202417,0.19860741,0.015882485,-0.01802051,-35.456253,-54.45,-25.650002,128.17227,-50.8844,-0.0015779372,0.30839443,0.29975575,0.62914145,0.64747244,985.9816
1747666372589,0.18424734,7.745567,5.7547383,0.17722714,-0.067195125,-0.018631376,-35.756252,-54.318752,-25.518751,128.18294,-51.112633,-0.006244954,0.30978525,0.30083087,0.6284175,0.6470126,985.986
1747666372610,-0.33499518,8.322237,6.6161547,0.17539455,-0.03604102,0.052839804,-36.206253,-54.562504,-25.650002,128.20142,-51.41637,0.07406737,0.31187162,0.30205578,0.6275214,0.64630896,985.99066
1747666372632,-0.5766702,8.32463,6.884151,0.21571162,-0.091018856,0.094378605,-36.05625,-54.975002,-25.875002,128.12395,-51.6684,0.22131395,0.31348288,0.30269605,0.627174,0.6455667,985.99066
1747666372652,-0.5024927,8.389236,6.7262244,0.25663957,-0.023823727,0.18173227,-36.16875,-55.068752,-26.41875,127.99896,-51.916737,0.3476618,0.31616473,0.3035117,0.6269416,0.64409995,986.0046
1747666372674,0.23688944,8.305488,6.7022963,0.18211406,0.20769402,0.2244928,-36.487503,-55.275,-26.493752,127.72917,-52.183826,0.5286624,0.3178042,0.3047224,0.62770313,0.64197624,986.0046
1747666372696,0.8757731,8.549556,7.389036,0.082543105,0.3188714,0.083383046,-36.65625,-55.4625,-26.643751,127.28589,-52.3918,0.5637618,0.31746414,0.30698615,0.62963647,0.63916665,986.0197
1747666372716,0.39720857,8.95155,7.867601,0.03367392,0.3017672,-0.0858265,-37.162502,-55.575,-26.625002,127.14277,-52.44182,0.28093266,0.31584156,0.30897725,0.630471,0.63818765,986.0197
1747666372737,-0.014356935,9.315259,7.8628154,-0.002367101,0.21258095,-0.1725693,-37.162502,-55.706253,-26.550001,127.23337,-52.44193,-0.070013344,0.31389108,0.3109504,0.63057137,0.63809246,986.0207
1747666372758,-1.282553,9.145369,7.850851,-0.039629854,0.2809978,-0.15974113,-37.29375,-55.93125,-26.7,127.43822,-52.40539,-0.47120178,0.3110953,0.31321606,0.63012725,0.63879186,986.0207
1747666372779,-1.4596218,9.078369,7.793423,-0.07017309,0.3035998,-0.05222894,-37.143753,-55.95,-26.718752,127.592445,-52.30966,-1.0180233,0.30828393,0.31519052,0.63041097,0.63890374,986.04095
1747666372800,-1.6965113,8.855837,7.783852,-0.12148573,0.32253662,0.057726722,-36.99375,-56.006252,-26.925001,127.55033,-52.185833,-1.3537494,0.30543762,0.31669986,0.6314647,0.63848364,986.04095
1747666372822,-1.8233309,8.29113,7.9274216,-0.10682498,0.29871288,0.21166465,-36.80625,-56.062504,-27.2625,127.3519,-52.024765,-1.583945,0.30198878,0.31791794,0.633901,0.63710326,986.0566
1747666372842,-1.282553,7.652247,7.6666036,-0.032299474,0.10506874,0.30879214,-36.525,-56.156254,-27.54375,126.98465,-51.888615,-1.6323909,0.30032834,0.3181861,0.63638574,0.63527447,986.0566
1747666372865,-0.6436693,6.8745794,6.611369,0.006185006,-0.10140356,0.33872452,-36.43125,-55.93125,-27.91875,126.331,-51.810974,-1.2277488,0.30083382,0.31699342,0.6390044,0.6329988,986.0627
1747666372886,-0.5096712,6.206982,5.6350975,-0.046349365,-0.13500112,0.30024004,-36.206253,-55.74375,-28.518751,125.91596,-51.785248,-0.7785738,0.3023228,0.31518507,0.64069223,0.63148457,986.0573
1747666372907,-0.22731815,5.8624153,5.139783,-0.17768529,-0.018936807,0.19211698,-35.9625,-55.687504,-28.95,125.5674,-51.682255,-0.4931833,0.3031894,0.31266573,0.6427082,0.6302718,986.0573
1747666372929,-0.069391854,5.8911295,5.6614184,-0.24365869,0.15332706,0.057726722,-36.075,-55.312504,-28.800001,125.294464,-51.38197,-0.29182094,0.30179387,0.31122622,0.6443746,0.62995243,986.04926
1747666372951,-0.29192436,6.2213387,6.3457656,-0.108657576,0.14538582,-0.043065965,-36.09375,-54.843754,-28.63125,125.24082,-51.12236,-0.46875012,0.2993259,0.31078097,0.6456151,0.6300797,986.04926
1747666372972,-0.31106696,6.472585,6.0658054,0.1796706,0.027488915,-0.06017018,-36.412502,-54.506252,-28.593752,125.29716,-51.046192,-0.6825205,0.29796696,0.3115202,0.64567345,0.6302989,986.0468
1747666372994,-0.31585258,6.541977,5.359923,0.35621053,0.021380268,-0.038789913,-36.881252,-54.375004,-28.44375,125.38351,-51.232967,-0.8092854,0.29902014,0.31322274,0.6446923,0.6299606,986.0468
1747666373014,-0.57906306,6.6257257,4.682754,0.42707083,0.029932374,0.030237807,-36.5625,-54.862503,-28.987501,125.43393,-51.861446,-0.7359407,0.30163753,0.3166599,0.64313877,0.6285808,986.03534
1747666373035,-0.3397808,6.8602223,4.156333,0.35376707,-0.021991132,0.12492185,-36.65625,-55.275,-29.04375,125.337364,-52.33634,-0.6776066,0.30431408,0.31924337,0.64225584,0.6268844,986.03534
1747666373057,-0.2656033,7.173682,4.2592244,0.19494222,-0.01282816,0.12614357,-37.050003,-55.593754,-29.156252,125.11113,-52.78042,-0.47803673,0.30736378,0.32110763,0.64191717,0.6247878,986.0195
1747666373079,-0.57427746,7.5230346,4.9579287,0.10270164,-0.032986697,0.13652828,-37.275,-55.800003,-28.743752,124.934326,-52.971603,-0.34084573,0.30879393,0.32179233,0.6420993,0.62354183,986.0195
1747666373100,-0.69152576,7.688139,5.2666025,0.09353867,-0.14172062,0.17318016,-37.59375,-55.893753,-28.706251,124.75062,-53.098465,-0.14104821,0.31026316,0.3217414,0.64239347,0.6225351,986.0168
1747666373121,-0.18424734,7.8723865,5.4699926,0.10147991,-0.30543238,0.15974113,-37.95,-56.062504,-28.518751,124.56573,-53.21419,0.20057552,0.3133016,0.3203791,0.6424459,0.6216611,986.0168
1747666373143,0.25842485,7.891529,5.369494,0.11003202,-0.4147772,0.08032872,-37.575,-56.2125,-28.48125,124.45954,-53.338432,0.6269392,0.31662023,0.31856808,0.64175963,0.62161934,986.0195
1747666373165,0.39720857,8.190632,5.3144593,0.0410043,-0.42699447,-0.04612029,-37.6875,-56.437504,-28.593752,124.49382,-53.465324,1.0436028,0.3208226,0.3160152,0.6399297,0.6226533,986.0195
1747666373186,0.6652047,8.532805,5.9318075,-0.06101012,-0.23640467,-0.1744019,-38.025,-56.662502,-28.275002,124.80942,-53.52947,1.4244069,0.32294258,0.31412047,0.6381971,0.62429225,986.0256
1747666373208,0.6556334,9.006584,7.3100734,-0.01886045,-0.018936807,-0.33322674,-38.100002,-56.812504,-28.3875,125.27991,-53.460762,1.273671,0.3228616,0.31338122,0.6360994,0.6268414,986.0378
1747666373230,0.14117654,9.456435,8.224132,0.18883358,0.027488915,-0.42607817,-38.287502,-56.943752,-28.06875,125.81815,-53.511753,0.85321265,0.32190025,0.31481987,0.63375187,0.62898904,986.0378
1747666373251,-0.062213387,10.006784,8.224132,0.39347327,-0.18264857,-0.4065305,-38.625,-57.112503,-28.3875,126.439156,-53.765697,0.3858298,0.32240307,0.318102,0.62944025,0.6314051,986.07635
1747666373272,-0.2943172,9.8632145,6.606583,0.40630144,-0.33841908,-0.24404047,-38.362503,-57.318752,-28.63125,127.072556,-54.200813,0.13985878,0.3255335,0.32000884,0.62508297,0.63316154,986.07635
1747666373293,0.33738798,9.564112,5.5704913,0.11186461,-0.046425723,-0.07055488,-38.268753,-57.6375,-28.66875,127.51655,-54.637825,0.12215443,0.3291796,0.32126704,0.6215386,0.6341278,986.09735
1747666373315,1.119841,9.068798,6.125626,-0.32795802,0.2761109,-0.041233372,-38.4,-58.4625,-28.125002,127.62566,-54.730053,0.013328832,0.32827374,0.32174778,0.62179035,0.6341068,986.09735
1747666373338,1.1533405,8.977871,7.7216387,-0.58696467,0.14110976,-0.15913028,-38.5125,-58.93125,-27.7875,127.61713,-54.26176,-0.2371343,0.322786,0.32035318,0.6240141,0.6354442,986.1169
1747666373358,0.44745782,8.724232,8.484949,-0.5118283,-0.20036365,-0.21655156,-38.568752,-59.1375,-28.050001,127.90838,-53.42277,-0.4804213,0.3186279,0.31708422,0.6247714,0.6384313,986.1169
1747666373379,0.31585258,8.279166,7.752745,-0.20517421,-0.3866774,-0.1707367,-38.4,-59.006252,-28.312502,128.29947,-52.934387,-0.43504775,0.3172562,0.31304812,0.62389237,0.64195615,986.1286
1747666373399,0.65324056,7.8053875,6.465407,-0.0060322895,-0.19853105,-0.113926284,-38.4375,-58.275,-28.706251,128.61935,-52.759647,-0.2998322,0.31796914,0.3103592,0.62239003,0.64436275,986.1286
1747666373419,0.56470615,7.2023964,5.501099,-0.035964664,0.11362085,-0.08155045,-38.11875,-58.050003,-29.062502,128.78868,-52.75446,-0.29771858,0.31823513,0.3099819,0.6214206,0.64534795,986.11053
1747666373439,0.40677986,6.991828,5.6997037,-0.1966221,0.23640467,-0.066889696,-38.25,-58.125004,-29.156252,128.84586,-52.677986,-0.48717916,0.31629515,0.31064773,0.6219004,0.6455193,986.11053
1747666373460,0.16031912,6.879365,6.3744793,-0.27053675,0.067195125,-0.027794348,-38.100002,-58.143753,-29.156252,128.85857,-52.42686,-0.72003454,0.31351182,0.31035677,0.6229304,0.64602375,986.0949
1747666373480,-0.02871387,6.4295144,6.283552,-0.19356778,-0.27794346,0.016187917,-37.725002,-58.406254,-29.456251,128.88138,-52.114464,-0.7416794,0.31222174,0.30827683,0.6235021,0.64709204,986.0949
1747666373501,-0.059820566,6.053841,5.697311,-0.065286174,-0.4630355,0.032070402,-37.518753,-58.331253,-29.062502,128.97112,-51.844482,-0.3749882,0.31325963,0.3049264,0.6230981,0.6485654,986.0859
1747666373522,0.46181476,5.65424,4.941179,0.15767947,-0.42943794,0.028405212,-37.40625,-58.162502,-29.362501,129.06291,-51.810024,0.0741447,0.3168683,0.3010357,0.6216082,0.6500579,986.0859
1747666373542,0.82313097,5.4341,4.465007,0.3409389,-0.2669479,-0.032681264,-37.7625,-57.9,-29.85,129.1446,-51.984913,0.47572988,0.32056817,0.29975602,0.61995023,0.65041834,986.0671
1747666373563,0.91405827,5.4891353,3.9744785,0.46311185,-0.12828161,-0.113926284,-38.006252,-57.9,-29.737501,129.26044,-52.365414,0.6790877,0.3242413,0.30071574,0.6178464,0.65015644,986.0671
1747666373583,0.61016977,5.9557357,3.735196,0.4655553,-0.009162972,-0.19028437,-38.362503,-57.99375,-29.56875,129.44757,-52.879375,0.67615473,0.32749304,0.30326235,0.61536145,0.6497004,986.03876
1747666373605,-0.43070808,6.778867,4.106084,0.4606684,0.10995566,-0.15363249,-38.98125,-58.631252,-28.29375,129.82399,-53.669888,0.34606355,0.33024928,0.30777752,0.6122867,0.6490866,986.0297
1747666373625,-0.4642076,7.367501,4.304688,0.4899899,0.20097451,0.03573559,-38.8875,-59.04375,-27.825,129.9261,-54.211826,0.10513645,0.33211628,0.31193694,0.6106109,0.64772564,986.0297
1747666373646,0.086141616,7.60439,4.3501515,0.3861429,0.26389357,0.21349724,-38.943752,-59.362503,-27.843752,129.62138,-54.88197,0.021015324,0.33454877,0.31693187,0.6105908,0.6440576,986.02216
1747666373666,0.5455636,7.853244,4.948357,0.1796706,0.21807873,0.24831653,-38.943752,-60.037502,-27.956251,129.18361,-55.230747,0.09671075,0.3357818,0.3195544,0.6119329,0.64083827,986.02216
1747666373686,0.7585248,8.025527,5.8217373,0.036728244,0.021380268,0.18661919,-38.381252,-60.393753,-28.06875,128.78752,-55.353367,0.26170933,0.33642295,0.32026398,0.61352897,0.63861793,986.03436
1747666373706,0.3278167,8.425129,6.1854467,-0.0011453715,-0.19914192,0.085215636,-38.23125,-60.768753,-28.237501,128.59906,-55.358986,0.5010213,0.33746913,0.31925052,0.6141728,0.63795406,986.03436
1747666373726,0.06699903,8.920443,6.32423,-0.01763872,-0.16676609,0.06627883,-37.95,-60.862503,-28.368752,128.55673,-55.341545,0.7404041,0.3388039,0.31767902,0.6140486,0.6381506,986.0463
1747666373746,0.047856454,9.609575,6.7238317,-0.031688612,-0.032375835,0.083383046,-38.04375,-60.6375,-28.66875,128.50397,-55.31203,0.916915,0.33963928,0.316493,0.6141126,0.6382344,986.0463
1747666373767,0.77766734,10.3441725,7.62114,0.017791437,0.12705988,0.0962112,-38.006252,-60.412502,-28.781252,128.36386,-55.28086,1.0087327,0.3396088,0.31618863,0.6150694,0.6374796,986.0566
1747666373787,0.997807,10.217353,7.989635,0.09964732,0.18264857,-0.0015271619,-37.93125,-60.225002,-28.556252,128.15189,-55.324005,0.9925459,0.339205,0.31711456,0.61594534,0.636388,986.0566
1747666373808,0.49292147,10.006784,7.8436728,0.066049755,0.103236146,-0.1084285,-37.818752,-60.300003,-28.612501,128.14001,-55.408768,0.8516956,0.33870855,0.31856483,0.61606467,0.6358122,986.0671
1747666373829,-0.23449662,9.700503,7.6163545,-0.04329504,0.06352994,-0.15729769,-37.7625,-60.487503,-28.312502,128.30032,-55.42305,0.65006864,0.33790419,0.31953558,0.61551785,0.6362826,986.0671
1747666373850,-0.40917268,9.317652,8.003992,-0.17157665,0.03054324,-0.19211698,-38.0625,-60.825,-28.29375,128.53555,-55.287285,0.3997899,0.33563483,0.31976193,0.61493254,0.6379339,986.0795
1747666373870,-0.3397808,9.147761,7.9920278,-0.098272875,-0.08124501,-0.24220788,-38.025,-61.0875,-28.35,128.84326,-55.068752,0.15526685,0.3338395,0.31925216,0.6140977,0.6399323,986.0795
1747666373891,-0.8446664,8.975478,7.219146,0.0049632764,-0.01527162,-0.20311254,-38.30625,-61.275,-27.993752,129.23276,-54.932632,-0.0645527,0.33291852,0.31907532,0.61260957,0.6419234,986.07074
1747666373913,-0.9738788,8.760123,6.491728,-0.023747368,0.1960876,-0.0772744,-38.23125,-61.406254,-27.825,129.5352,-54.91137,-0.30659708,0.33158922,0.3202971,0.6116044,0.6429607,986.07074
1747666373933,-1.0432707,8.32463,6.350551,-0.117820546,0.2828304,0.044287696,-38.0625,-61.537502,-27.825,129.60059,-54.854767,-0.6352991,0.32946047,0.32165548,0.6124057,0.642614,986.0607
1747666373954,-1.4691931,7.63789,6.0370917,-0.26320636,0.14355323,0.16646065,-38.41875,-61.612503,-27.806252,129.37866,-54.626263,-0.81749666,0.3270265,0.32196012,0.61422944,0.6419638,986.0607
1747666373975,-1.5457634,7.173682,5.663811,-0.4134791,-0.045203995,0.27336198,-38.287502,-61.518753,-27.618752,129.00885,-54.165115,-0.65918714,0.3244708,0.31942156,0.6172619,0.64162004,986.04266
1747666373996,-0.8662018,6.759724,5.6470613,-0.47823077,-0.11056653,0.32772896,-38.4,-61.218754,-27.656252,128.62337,-53.655785,-0.31180772,0.3227846,0.31543735,0.6202072,0.6416015,986.04266
1747666374016,-0.27996024,6.439086,5.656633,-0.3682751,-0.13805544,0.29779658,-38.268753,-60.487503,-28.0125,128.21707,-53.138714,0.11684267,0.32147405,0.31099144,0.62317353,0.64155555,986.02826
1747666374038,0.1052842,6.2380886,5.505885,-0.1343139,-0.1178969,0.21716243,-38.081253,-60.112503,-28.612501,127.87598,-52.785637,0.52824986,0.3211233,0.30741295,0.62537,0.6413185,986.02826
1747666374058,0.2656033,6.2691956,5.048856,0.15462515,-0.048258316,0.13836087,-38.30625,-59.850002,-28.743752,127.63392,-52.709908,0.82588303,0.32225412,0.3057407,0.6265556,0.6403928,986.00775
1747666374080,0.5455636,6.2309103,4.7114677,0.34765843,0.076358095,0.09071342,-38.550003,-59.812504,-28.893751,127.40578,-52.992207,1.0137564,0.3240531,0.30677465,0.6266414,0.63890487,986.00775
1747666374102,0.5192425,6.204589,4.5248275,0.46189013,0.10995566,0.019853106,-38.662502,-59.850002,-28.706251,127.26181,-53.4158,1.0298399,0.32673493,0.3101574,0.6260608,0.6364704,985.9936
1747666374122,0.22013968,6.573084,4.237689,0.4728857,0.017104214,-0.0051923506,-38.756252,-60.018753,-28.781252,127.19864,-53.93466,0.9714972,0.32923833,0.31349868,0.6249325,0.6346496,985.9936
1747666374147,-0.11006984,6.855437,3.979264,0.3757582,-0.043982264,0.024129158,-38.756252,-60.206253,-29.1,127.18681,-54.45978,0.9558664,0.332105,0.31622002,0.62353086,0.63318276,985.98724
1747666374169,-0.44027936,7.1282187,4.321438,0.26519167,-0.0097738365,0.07849612,-38.60625,-60.487503,-29.025002,127.15604,-54.88728,1.0068525,0.33514774,0.31840074,0.62236404,0.6316328,985.98724
1747666374190,-0.30149564,7.367501,5.316852,0.32749987,0.023823727,0.0980438,-38.25,-61.256252,-29.79375,126.98002,-55.355923,1.1051018,0.33732328,0.32042512,0.6220601,0.62974757,985.98553
1747666374210,-0.32063824,7.379465,5.288138,0.4295143,-0.11300998,0.082161315,-37.631252,-61.987503,-30.000002,126.81685,-55.828297,1.2124351,0.33979017,0.32224485,0.62143826,0.62810457,985.9924
1747666374230,-0.25842485,7.456035,4.7401814,0.42707083,-0.20647229,0.0772744,-37.237503,-62.550003,-30.31875,126.7582,-56.30671,1.3874813,0.34349445,0.32376093,0.62003046,0.6266998,985.9924
1747666374251,0.25842485,7.6570325,4.5128636,0.28657195,-0.18509203,0.004581486,-37.275,-62.643753,-29.718752,126.741714,-56.747963,1.5922155,0.34813535,0.32489818,0.61803085,0.62552446,985.9963
1747666374273,0.49052864,8.202596,5.163711,0.15706861,-0.092851445,-0.15363249,-37.706253,-62.812504,-28.837502,126.823715,-57.049187,1.6856685,0.35028368,0.32560015,0.6164983,0.6254725,985.9963
1747666374294,0.44745782,8.99462,5.8672013,0.06666062,-0.11423171,-0.30757043,-38.100002,-63.018753,-28.218752,127.29335,-57.286118,1.4689143,0.35108957,0.32669467,0.61403805,0.6268684,986.00287
1747666374315,0.6053841,9.906285,6.5611196,0.040393434,-0.32925612,-0.42363474,-38.0625,-63.24375,-28.3875,127.880516,-57.3456,1.2075968,0.35131067,0.32701927,0.6111409,0.6294013,986.00287
1747666374336,0.7704889,10.183853,6.096912,0.08315397,-0.4807506,-0.43890634,-37.78125,-63.412502,-29.1,128.65958,-57.41925,1.0256426,0.35270315,0.3262856,0.60698605,0.6330135,986.02704
1747666374357,0.6771688,10.157532,5.6997037,-0.009697478,-0.100181825,-0.36926776,-37.55625,-63.225002,-28.85625,129.5781,-57.530853,0.78125995,0.35429403,0.32575253,0.60203004,0.6371193,986.02704
1747666374379,0.6269195,9.645468,5.6590257,-0.30596688,0.2864956,-0.26603162,-37.93125,-63.562504,-28.968752,130.00989,-57.443203,0.40729234,0.35252416,0.32661247,0.600566,0.6390394,986.0256
1747666374403,0.7704889,9.305687,6.910472,-0.84658223,0.45692685,-0.2837467,-37.74375,-63.675003,-29.156252,130.23608,-56.967403,-0.1262836,0.34495863,0.32710496,0.60220623,0.64136845,986.0256
1747666374426,0.46660042,8.7266245,8.736196,-1.0768782,-0.047647454,-0.3356702,-37.350002,-63.843754,-29.906252,130.68628,-55.385525,-0.9653639,0.33396143,0.32330883,0.60504264,0.6464245,986.04535
1747666374447,0.44506502,8.032705,8.836694,-0.92721635,-0.40989026,-0.33628106,-36.75,-63.525,-30.468752,131.21716,-54.155674,-1.1898127,0.32716525,0.3166883,0.6058089,0.6524316,986.0732
1747666374469,0.88295156,7.690532,7.6019974,-0.6077341,-0.41416633,-0.42302385,-36.506252,-63.3375,-31.050001,131.85333,-53.148262,-1.2062759,0.32239175,0.3080934,0.6044838,0.6601071,986.0732
1747666374492,0.27038896,7.874779,5.8743796,-0.37988153,-0.08124501,-0.458454,-37.162502,-62.9625,-30.843752,132.57224,-52.475735,-1.3525834,0.31891668,0.30375686,0.6016714,0.6663448,986.06854
1747666374512,-0.44027936,7.8963146,5.6470613,-0.42142034,0.28954992,-0.34727663,-37.85625,-62.756252,-30.13125,133.36841,-51.916855,-1.9034796,0.3148727,0.30333713,0.6003108,0.66967803,986.06854
1747666374533,-0.8709874,7.728817,6.2237315,-0.47639817,0.2357938,-0.23365578,-38.568752,-62.456253,-29.625002,133.75769,-51.439568,-3.1906686,0.30939123,0.30370876,0.6004755,0.67191315,986.0629
1747666374557,-1.0480564,7.204789,6.4343,-0.4495201,-0.2999346,-0.06933315,-39.2625,-61.687504,-28.66875,134.09766,-50.626034,-3.6234808,0.30468574,0.30101657,0.60093623,0.6748564,986.0629
1747666374577,-0.77766734,6.71426,5.692525,-0.29802567,-0.6646209,0.057115857,-39.1875,-61.518753,-28.706251,134.24925,-50.173676,-3.1186926,0.3046286,0.29570994,0.60054386,0.67757225,986.06976
1747666374599,-0.55752766,6.2668023,4.8358946,-0.13614649,-0.6676752,0.14691298,-39.54375,-61.29375,-28.7625,134.30971,-49.906834,-2.2534678,0.3071636,0.2896262,0.59973544,0.679768,986.06976
1747666374620,0.18903299,5.7834525,4.194618,-0.00481056,-0.4159989,0.19394957,-40.18125,-61.162502,-28.462502,134.23512,-49.81426,-1.3662837,0.31135035,0.28367382,0.59919894,0.6808456,986.05804
1747666374642,0.6987042,5.6279187,4.091727,0.07460186,-0.23823726,0.1291979,-40.3875,-61.125004,-28.331251,134.02379,-49.85155,-0.5187886,0.31481344,0.28046584,0.5992643,0.6805246,986.05804
1747666374662,0.9403793,5.852844,4.089334,0.13874267,-0.21380267,0.03695732,-40.518753,-60.862503,-28.10625,133.90843,-49.963936,-0.08299771,0.31720644,0.27929673,0.5989475,0.680173,986.03314
1747666374684,0.65324056,6.4869423,4.1371903,0.18944444,-0.22174391,-0.040011644,-40.74375,-60.768753,-27.656252,133.91624,-50.146595,0.22470677,0.31978095,0.27874562,0.59786206,0.68014854,986.03314
1747666374704,0.4331009,7.097112,4.2161536,0.24258968,-0.21746786,-0.022907428,-40.8375,-61.0125,-27.50625,134.01073,-50.389046,0.452059,0.32258064,0.27865255,0.59633744,0.680203,986.01483
1747666374726,0.33499518,7.745567,4.395615,0.24992006,-0.034208428,0.009468404,-41.456253,-61.575,-26.812502,134.08774,-50.856304,0.75290954,0.32617614,0.27928954,0.59468716,0.6796717,986.0114
1747666374747,0.20578274,8.372486,5.3336015,0.23587017,0.15638138,0.041233372,-41.568752,-61.725002,-26.550001,134.03676,-51.168285,0.76751566,0.32823834,0.28154972,0.5941669,0.6781998,986.0114
1747666374768,-0.02632105,8.611769,6.302695,0.25480697,0.19975278,0.052839804,-41.68125,-61.800003,-26.7,133.91725,-51.459427,0.64964354,0.32901952,0.2841266,0.5943626,0.6765732,986.0163
1747666374788,-0.22253251,8.831908,6.9344,0.2700786,0.17043127,0.07177661,-41.7,-61.706253,-26.60625,133.74109,-51.831726,0.37931922,0.3298329,0.28676584,0.59461486,0.67483985,986.0163
1747666374809,-0.17706887,9.0233345,7.2622166,0.21998768,0.09651663,0.083993904,-41.568752,-61.781254,-26.41875,133.59402,-52.113068,0.3249074,0.33081755,0.28899014,0.5948484,0.6732012,986.0417
1747666374830,0.22492532,9.150154,7.3363943,0.11491894,0.013439025,0.07299834,-41.8875,-62.025,-26.362501,133.45801,-52.31882,0.3572704,0.33211666,0.2903748,0.5951194,0.67172456,986.0417
1747666374852,0.20817557,9.025727,7.3746796,0.030619597,0.05070178,-0.021074835,-41.831253,-62.287502,-26.062502,133.36575,-52.42121,0.41431648,0.33261675,0.29075137,0.5952681,0.6711823,986.0568
1747666374872,-0.09332009,8.922835,7.176075,-0.0561232,0.13316852,-0.059559315,-42.28125,-62.775,-25.85625,133.38048,-52.43921,0.34428537,0.33203453,0.29134557,0.59528595,0.67119706,986.0568
1747666374894,-0.66759753,8.846265,7.3340015,-0.26442808,0.2932151,0.0021380268,-42.375,-63.037502,-25.7625,133.42043,-52.3368,0.13633974,0.32903537,0.2922345,0.5962585,0.6714242,986.06683
1747666374917,-0.57906306,8.590233,7.623533,-0.5503128,0.3090976,0.08949169,-42.487503,-63.393753,-25.875002,133.27167,-51.809418,-0.24977191,0.32361522,0.29182163,0.5992272,0.6715952,986.06683
1747666374940,-0.3469593,8.480164,8.152347,-0.7952696,0.13194679,0.065667965,-42.7125,-63.80625,-26.156252,133.03851,-50.922733,-0.5622715,0.3179315,0.2893973,0.60241824,0.6725036,986.0844
1747666374961,-0.44745782,8.563912,8.556734,-0.8557452,-0.03054324,0.05650499,-42.225002,-63.787502,-26.60625,132.94247,-49.981674,-0.5572092,0.31213716,0.28472668,0.6053336,0.6745904,986.0844
1747666374981,-0.6364908,8.444271,9.107083,-0.66882056,0.076358095,0.113926284,-41.90625,-63.206253,-27.31875,132.85638,-49.042397,-0.4678415,0.3055083,0.27849963,0.608733,0.6771608,986.1005
1747666375003,-0.4642076,7.8987074,8.815159,-0.3267363,0.12400555,0.1744019,-41.68125,-62.737503,-27.7875,132.67508,-48.330822,-0.4214863,0.30150452,0.27545428,0.61140406,0.67779416,986.1005
1747666375024,-0.5096712,7.52782,8.013563,-0.11720968,0.16065744,0.20311254,-41.362503,-61.65,-28.425001,132.26364,-47.844852,-0.34151888,0.29881963,0.27412143,0.6142798,0.67692286,986.1115
1747666375046,-0.4211368,7.133004,7.2215385,-0.13492475,0.09346231,0.21532984,-41.287502,-61.350002,-28.518751,131.94998,-47.703854,-0.2608235,0.2976259,0.27375332,0.6163604,0.6757054,986.1064
1747666375066,-0.40438703,6.778867,6.8339014,-0.23083054,-0.054366965,0.21288638,-41.325,-61.2,-28.2,131.64977,-47.50878,-0.07821617,0.29644835,0.27197975,0.61880887,0.67470056,986.1064
1747666375088,-0.30388847,6.506085,6.695118,-0.22594361,-0.16249003,0.21288638,-41.9625,-61.125004,-27.73125,131.31802,-47.16309,0.34162506,0.29590496,0.2692385,0.6205284,0.67445934,986.0988
1747666375108,-0.31106696,6.2117677,6.4845495,-0.09521855,-0.17959425,0.22632541,-41.79375,-60.9,-27.2625,131.06598,-46.94183,0.7713253,0.2961511,0.26637426,0.6219283,0.67419916,986.0988
1747666375131,-0.19621146,5.7834525,5.697311,0.1833358,-0.10079269,0.22204934,-42.225002,-60.9,-26.98125,130.7943,-46.928223,1.205444,0.29813078,0.2645386,0.6231248,0.6729435,986.07855
1747666375152,-0.19142582,5.73081,4.8095737,0.35743225,-0.023823727,0.21838416,-42.318752,-61.031254,-27.225,130.51213,-47.15957,1.5562073,0.30075127,0.2650944,0.6236429,0.6710761,986.07855
1747666375174,0.13160525,5.84088,3.8093736,0.33727372,-0.01527162,0.23304491,-42.0,-61.050003,-27.618752,130.20738,-47.55418,1.8493371,0.30463094,0.26702753,0.62417907,0.6680545,986.0578
1747666375194,0.15314065,6.1495543,3.67059,0.13568833,0.14110976,0.19944735,-42.487503,-61.612503,-27.6,129.71283,-48.084545,2.2602718,0.30697012,0.26835155,0.6249169,0.66575944,986.0578
1747666375215,-0.14356937,6.422336,4.895715,0.023900084,0.2614501,0.1499673,-42.84375,-61.893753,-27.675001,129.32343,-48.223164,2.2565298,0.30683547,0.27017552,0.6268024,0.6633068,986.02606
1747666375236,-0.45224348,6.7262244,5.5968122,0.059941106,0.22663084,0.12186752,-42.768753,-62.2125,-27.562502,129.08055,-48.26981,2.131217,0.3059127,0.27172744,0.628244,0.66173345,986.02606
1747666375257,-0.36131623,7.1545396,6.1567326,0.1259145,0.16065744,0.09926552,-42.412502,-62.456253,-27.54375,128.87878,-48.36881,2.0219178,0.3054567,0.27337962,0.6292943,0.66026396,986.02045
1747666375277,-0.33499518,7.429714,6.5228343,0.19372049,0.0061086477,0.07177661,-42.28125,-62.568752,-27.581251,128.72691,-48.531216,1.9879255,0.30584484,0.27486774,0.6297961,0.65898675,986.02045
1747666375299,0.07178468,7.597212,6.664011,0.2596939,-0.07880156,-0.003970621,-42.0,-62.775,-27.581251,128.66124,-48.765713,2.078723,0.307966,0.2761539,0.6292451,0.65798676,986.0229
1747666375320,0.2656033,7.719246,6.7501526,0.3079522,-0.054366965,-0.109039366,-42.05625,-63.35625,-27.225,128.70975,-49.064445,2.1417162,0.31007412,0.27753976,0.6279503,0.6576504,986.0229
1747666375341,0.37328035,8.13799,7.2095747,0.35071275,0.05986475,-0.228158,-42.112503,-63.675003,-26.643751,128.89417,-49.41609,2.032582,0.31179747,0.27985898,0.62604517,0.6576692,986.02875
1747666375362,0.64845496,8.630911,7.8293157,0.37270388,0.21380267,-0.33689192,-41.98125,-64.05,-26.400002,129.28745,-49.909203,1.5400547,0.31283608,0.28445163,0.6231717,0.65793455,986.02875
1747666375383,1.0959128,9.02812,8.585447,0.38369945,0.3090976,-0.48411033,-42.16875,-64.3125,-25.706251,129.72537,-50.31692,0.8317538,0.31253654,0.28939325,0.62050235,0.6584446,986.03973
1747666375404,0.72741807,9.853643,9.219545,0.46799877,0.11300998,-0.5561924,-41.60625,-64.5,-25.518751,130.35031,-50.730705,-0.12546703,0.3120315,0.2948256,0.6168956,0.659662,986.03973
1747666375425,0.37328035,9.997213,8.334201,0.43073604,-0.07147118,-0.45112363,-41.550003,-65.025,-25.500002,131.09161,-51.212048,-0.94712913,0.31329632,0.29920176,0.61238885,0.6612894,986.0539
1747666375446,0.1052842,9.946963,7.5110703,0.09353867,-0.0971275,-0.29962918,-41.15625,-66.05625,-25.181252,132.00201,-51.771664,-1.3021379,0.31521058,0.30227908,0.6077356,0.66327006,986.0688
1747666375468,-0.016749758,9.3104725,7.877172,-0.24610215,-0.050090913,-0.1707367,-40.85625,-66.825005,-24.956251,132.38953,-51.75899,-1.5147777,0.31452417,0.30228814,0.6056771,0.665471,986.0688
1747666375488,0.4354937,8.743374,8.46102,-0.37132943,-0.27305657,-0.15546508,-40.48125,-67.18125,-24.393751,132.63806,-51.431465,-2.0287545,0.3127159,0.29988196,0.6053074,0.66774434,986.0788
1747666375509,0.5096712,8.17149,8.3174515,-0.26137376,-0.53511757,-0.24159703,-40.331253,-67.575005,-24.0,133.07217,-50.901894,-1.7754208,0.31221372,0.29554844,0.60398656,0.67109907,986.0788
1747666375530,0.19381863,7.716853,7.01097,0.08009964,-0.57971066,-0.31062475,-40.125,-67.8375,-23.90625,133.62303,-50.693844,-1.4726822,0.31442392,0.2906845,0.599984,0.67576575,986.08514
1747666375551,-0.033499517,7.4536424,5.345566,0.2694677,-0.36896232,-0.2623664,-40.331253,-67.725006,-23.625,134.19951,-50.80963,-1.2596565,0.3177328,0.28919956,0.59604454,0.6783365,986.08514
1747666375572,-0.11246266,7.2023964,4.130012,0.21326816,0.13377939,-0.18417573,-40.800003,-68.043755,-23.34375,134.63065,-51.118126,-1.2872275,0.32003585,0.29039147,0.5931557,0.6792762,986.0644
1747666375593,-0.44745782,6.800402,4.24726,0.0012980876,0.40133816,-0.07177661,-40.6875,-68.025,-22.96875,134.83337,-51.36946,-1.7024422,0.3189636,0.29436338,0.5924718,0.6786676,986.0644
1747666375614,-0.68195444,6.458228,4.6899323,-0.18562654,0.25717407,0.019853106,-40.612503,-68.26875,-22.44375,134.83511,-51.411335,-2.2471774,0.31631806,0.29651073,0.5935493,0.6780291,986.0463
1747666375635,-0.76570326,6.0107703,4.9986067,-0.29069528,-0.043982264,0.120034926,-40.350002,-69.0,-22.125,134.66849,-51.090195,-2.5191774,0.3140774,0.2959911,0.5950176,0.6780109,986.0463
1747666375656,-0.66041905,5.797809,4.8263235,-0.25098908,-0.27977607,0.182954,-40.2,-69.24375,-22.331251,134.46745,-50.702225,-2.0782874,0.31321678,0.29228097,0.596601,0.6786268,986.03754
1747666375678,-0.13399807,5.6446686,4.493721,-0.13492475,-0.3176497,0.21777329,-40.050003,-69.24375,-22.66875,134.27267,-50.47567,-1.4716413,0.31414172,0.28847367,0.5975222,0.67901784,986.03754
1747666375699,0.23928227,5.477171,4.45065,0.0037415468,-0.17287473,0.19028437,-40.143753,-69.225006,-22.9125,134.04294,-50.379543,-0.8718748,0.31575537,0.28545743,0.59833026,0.6788325,986.01996
1747666375719,0.33738798,5.6685967,4.6636114,0.2041052,-0.03848448,0.0980438,-39.862503,-68.925,-22.987501,133.8379,-50.446003,-0.49786434,0.31781128,0.28446814,0.5989258,0.67776227,986.01996
1747666375740,0.4139583,6.0729837,4.4434714,0.3635409,-0.03176497,0.055283263,-39.956253,-68.7375,-22.96875,133.71672,-50.71335,-0.32660905,0.3201014,0.28563794,0.5985783,0.6764984,986.01434
1747666375761,0.60059845,6.800402,4.024728,0.37514734,-0.03054324,0.025961753,-39.956253,-68.700005,-22.66875,133.64218,-51.137424,-0.19882768,0.32313088,0.28746465,0.5977079,0.6750524,986.01434
1747666375782,0.5383851,7.6570325,4.3334017,0.29023713,0.08002329,0.019853106,-39.825,-68.83125,-22.40625,133.59447,-51.57744,-0.11067009,0.32631266,0.2900301,0.59665245,0.6733562,986.0075
1747666375803,0.39960137,8.427522,5.1876397,0.23892449,0.2950477,0.05589413,-39.73125,-69.15,-22.03125,133.49886,-52.024883,-0.13384114,0.3275309,0.29256955,0.5965606,0.6717455,986.0075
1747666375824,-0.10049855,8.882157,6.005985,0.21998768,0.46120292,0.14080434,-39.318752,-69.450005,-21.5625,133.23126,-52.390594,-0.37594885,0.32739374,0.29611957,0.5975185,0.66940135,986.0009
1747666375847,-0.30388847,9.205189,6.843473,0.111253746,0.5051852,0.24281874,-39.28125,-69.58125,-21.0375,132.72412,-52.668236,-0.63637304,0.3261486,0.3007401,0.60017323,0.66556334,986.019
1747666375868,-0.3493521,9.375079,7.9226356,-0.028634287,0.38789913,0.309403,-38.925003,-69.525,-21.150002,132.19888,-52.736282,-0.7478581,0.3240716,0.30372646,0.6040355,0.6617167,986.019
1747666375889,-0.05742774,9.482756,8.657232,-0.0891099,0.2687805,0.3167334,-38.60625,-69.46875,-21.35625,131.64711,-52.67698,-0.716719,0.32250404,0.3044264,0.60733396,0.6591367,986.0439
1747666375910,0.33738798,10.157532,9.126225,-0.05856666,0.08613193,0.26358816,-38.175003,-69.506256,-21.618752,131.14178,-52.553226,-0.57645303,0.32149866,0.30405435,0.61017406,0.65717363,986.0439
1747666375932,0.26081768,10.487741,8.958728,0.015958842,0.047647454,0.25686863,-38.006252,-69.5625,-21.88125,130.74149,-52.46559,-0.33644852,0.3217942,0.30287936,0.61259395,0.65531766,986.07245
1747666375952,0.4642076,10.224531,9.016156,0.11980586,0.32314748,0.23732096,-38.025,-69.525,-22.3125,130.25354,-52.471252,-0.050564457,0.3219054,0.30319697,0.6146057,0.65322924,986.07245
1747666375974,0.08135597,9.722038,9.004191,0.19677481,0.46792242,0.17318016,-37.987503,-69.28125,-22.06875,129.82,-52.58352,-0.058972113,0.32112545,0.30555233,0.61682504,0.6504177,986.0822
1747666375995,-0.65084773,9.341579,8.774481,0.17478369,0.36346453,0.17379104,-37.8375,-69.15,-22.10625,129.43452,-52.7592,-0.24139121,0.3199422,0.30880475,0.618801,0.64758164,986.0822
1747666376016,-1.0552348,8.628518,8.310273,0.06421716,-0.0024434591,0.24404047,-37.237503,-68.512505,-21.91875,128.9356,-52.94201,-0.30058214,0.31952098,0.31080875,0.6207877,0.644924,986.0954
1747666376038,-0.73459655,7.7072816,7.7479596,0.041615162,-0.24373505,0.29779658,-36.91875,-68.606255,-21.9375,128.61478,-52.955185,0.029212719,0.32076418,0.3096622,0.62202317,0.64366674,986.0954
1747666376059,-0.124426775,6.735796,6.8219376,0.1259145,-0.32131487,0.26542073,-36.881252,-68.625,-22.03125,128.29407,-52.97508,0.5655719,0.3241139,0.30665004,0.623021,0.6424646,986.10785
1747666376081,-0.2727818,6.096912,5.407779,0.23281583,-0.26389357,0.10109812,-37.3125,-68.850006,-21.975,128.0282,-53.138493,1.1995778,0.32832736,0.3045874,0.62269986,0.64161706,986.10785
1747666376102,-0.6891329,5.8624153,4.278367,0.21082471,-0.041538805,0.008857539,-37.59375,-69.15,-21.956251,127.99007,-53.37515,1.4588318,0.33085376,0.30471754,0.6217849,0.64114463,986.092
1747666376123,-1.1916257,5.8337016,3.830909,0.058719378,0.23212862,-0.019853106,-38.081253,-69.3,-21.975,127.999344,-53.585335,1.4156293,0.33122063,0.30637252,0.6214048,0.6405348,986.092
1747666376145,-1.4333007,5.9270215,4.0127635,-0.09521855,0.24923283,0.024129158,-38.5875,-69.4875,-21.6,127.97163,-53.651096,1.1652024,0.32959118,0.30829206,0.6219948,0.6398813,986.0717
1747666376166,-1.2658032,5.905486,4.197011,-0.22166756,0.08307761,0.094378605,-38.643753,-69.24375,-21.581251,127.824875,-53.44412,0.90259886,0.32690632,0.3088627,0.6235396,0.63947976,986.05194
1747666376188,-0.9379865,5.912665,4.2185464,-0.24304782,-0.0024434591,0.14874557,-38.625,-68.943756,-21.675001,127.677986,-53.188847,0.94230133,0.32501882,0.30720946,0.6253319,0.63948816,986.05194
1747666376210,-0.59581286,5.9676995,4.546363,-0.15569416,0.02932151,0.16462806,-38.4375,-68.775,-21.675001,127.480034,-52.931602,1.0777626,0.32397348,0.30558598,0.6268934,0.63926756,986.0346
1747666376231,-0.37088752,6.101698,4.615755,-0.00481056,0.011606431,0.14569125,-38.04375,-68.231255,-21.825,127.198685,-52.750725,1.2449319,0.3234805,0.3046999,0.62826043,0.6385978,986.0346
1747666376252,-0.3278167,6.4151573,4.3405805,0.12102758,0.026267186,0.12186752,-38.11875,-68.006256,-22.1625,127.00818,-52.794434,1.3662891,0.32399297,0.30469584,0.6289745,0.6376363,986.018
1747666376274,-0.2632105,6.853044,3.888337,0.08743002,0.047647454,0.1291979,-38.081253,-67.96875,-22.06875,126.82698,-52.949703,1.4516056,0.32516703,0.3056899,0.6294893,0.63605285,986.018
1747666376294,-0.016749758,7.2358956,4.2687955,-0.057344932,0.112399116,0.12492185,-38.362503,-67.8375,-22.1625,126.62652,-53.05569,1.5352349,0.32556117,0.306114,0.630252,0.63489103,986.01776
1747666376316,0.1052842,7.5637126,5.6470613,-0.1343139,0.21868959,0.038789913,-38.568752,-67.950005,-22.06875,126.33126,-52.944366,1.521242,0.32407448,0.30637732,0.63193566,0.63385016,986.01776
1747666376337,0.0526421,8.099705,6.867401,-0.08422298,0.14782928,-0.05222894,-38.625,-68.11875,-21.993752,126.260185,-52.802822,1.3584889,0.32204756,0.30684367,0.6330059,0.6335897,986.0175
1747666376358,-0.18903299,8.602198,7.661818,0.04650208,0.02932151,-0.092546016,-38.1375,-67.875,-21.768751,126.33465,-52.727306,1.1841226,0.3205642,0.30747545,0.63300127,0.63404006,986.0175
1747666376381,-0.011964113,8.705089,8.338987,0.28840452,0.021380268,-0.10109812,-38.04375,-67.8375,-21.993752,126.50569,-52.837852,1.0160859,0.32094976,0.30894843,0.6318618,0.63426554,986.0324
1747666376401,0.22971097,8.762517,8.530413,0.49670944,-0.03176497,-0.15851942,-37.518753,-67.59375,-22.1625,126.66832,-53.164696,0.8686519,0.32261488,0.31150615,0.63008785,0.63393444,986.0324
1747666376422,0.38524446,8.997013,8.209774,0.59017175,-0.24495678,-0.28313583,-36.91875,-67.14375,-22.237501,126.9477,-53.696716,0.7192454,0.3257496,0.31458274,0.6269943,0.63387936,986.0485
1747666376444,0.52163535,9.51147,7.647461,0.57306755,-0.59192795,-0.41202828,-36.787502,-67.443756,-22.25625,127.45683,-54.31212,0.61837953,0.330332,0.31674808,0.6221987,0.6351538,986.0485
1747666376466,0.782453,9.961321,6.4677997,0.5022072,-0.6646209,-0.481056,-36.75,-68.30625,-21.300001,128.70285,-55.225155,0.66537124,0.33789018,0.3173226,0.6140458,0.6388148,986.06854
1747666376489,0.6412765,10.200603,5.5872407,0.3097848,-0.26572618,-0.43157595,-36.9375,-68.925,-20.60625,129.57472,-55.761116,0.59706926,0.34374824,0.31835306,0.6064757,0.6423984,986.0661
1747666376511,0.2727818,9.999606,5.852844,-0.0017562362,0.20219624,-0.33750278,-36.99375,-69.20625,-19.81875,130.38297,-56.16272,0.21310572,0.3445801,0.32094973,0.6023141,0.6445724,986.0661
1747666376532,0.1363909,9.700503,7.1952176,-0.19967642,0.1802051,-0.27458373,-36.693752,-69.4875,-20.04375,130.76639,-56.12723,-0.29881492,0.3416597,0.322859,0.60152024,0.6459134,986.0578
1747666376554,0.1052842,9.018549,7.5996046,-0.15019637,-0.3329213,-0.22327107,-36.45,-69.543755,-19.725,131.11357,-55.885876,-0.65978545,0.33952224,0.3223463,0.6006411,0.648111,986.0578
1747666376575,0.3397808,8.549556,6.424729,0.0043524117,-0.63224506,-0.18967351,-36.24375,-69.600006,-19.706251,131.56226,-55.695705,-0.63437164,0.34071353,0.31939533,0.5982223,0.6511766,986.0673
1747666376595,0.57427746,8.16431,4.7377887,0.08132137,-0.47952884,-0.1414152,-36.24375,-69.9,-20.118752,132.1438,-55.707985,-0.29053673,0.3439694,0.31620783,0.59505206,0.65391946,986.0673
1747666376616,0.35174492,7.702496,3.4408789,-0.051236283,0.11606431,-0.085215636,-36.09375,-69.46875,-19.725,132.47324,-55.816998,-0.15770338,0.34634054,0.31485158,0.59263194,0.65551823,986.0551
1747666376637,-0.19142582,7.338787,4.17069,-0.2955822,0.54611313,-0.024129158,-36.2625,-69.61875,-19.95,132.45726,-55.72365,-0.4263671,0.34294912,0.31679228,0.5939812,0.65514493,986.0551
1747666376659,-0.73459655,6.7525454,5.1732826,-0.39148796,0.3451386,0.06750056,-36.28125,-69.7125,-20.081251,132.23206,-55.28216,-0.92845684,0.33781546,0.31810513,0.5967481,0.6546614,986.0368
1747666376681,-0.65084773,6.1854467,5.056034,-0.33101234,-0.14477496,0.13286309,-36.46875,-69.65625,-20.04375,132.03862,-54.85001,-1.0200756,0.3338794,0.31629285,0.59957504,0.6549758,986.0368
1747666376702,-0.23928227,5.869594,4.1347976,-0.2522108,-0.45570514,0.12797616,-36.393753,-69.600006,-20.5125,131.9283,-54.489952,-0.72790504,0.33404398,0.3122508,0.60032564,0.65614265,986.03656
1747666376724,0.23928227,5.788238,3.1657043,-0.19967642,-0.42210758,0.10415245,-35.925003,-68.925,-20.643751,131.90219,-54.227856,-0.2298821,0.33575726,0.30758414,0.60020125,0.65758467,986.03656
1747666376745,0.57188463,5.8193445,3.1345978,-0.142866,-0.09834923,0.04734202,-35.737503,-68.53125,-20.98125,131.85715,-53.951298,0.35531408,0.3371998,0.30343142,0.6002212,0.65875655,986.0258
1747666376766,0.7680961,6.1495543,3.7878382,-0.012751802,0.14844014,0.0058032153,-35.71875,-68.0625,-20.737501,131.79582,-53.85778,0.42034584,0.33689675,0.3026874,0.6007069,0.6588112,986.00653
1747666376788,0.9738788,6.6568327,4.130012,0.13691007,0.15515965,-0.033902995,-36.0,-68.0625,-20.7,131.72945,-53.914104,0.3008029,0.33628044,0.3044425,0.601182,0.65788335,986.00653
1747666376810,0.79920274,7.314859,3.926622,0.11247548,-0.050090913,-0.06444623,-36.2625,-68.137505,-20.6625,131.74538,-54.13268,0.17200668,0.3368104,0.30595118,0.6007197,0.6573344,985.99994
1747666376830,0.47138608,8.073383,3.9098723,-0.098272875,-0.2480111,0.00763581,-36.24375,-68.175,-20.4375,131.83641,-54.238937,0.2332274,0.33836755,0.30542287,0.59961945,0.65778476,985.99994
1747666376851,0.22971097,8.71466,4.7832522,-0.30474517,-0.23823726,0.11270455,-36.693752,-68.137505,-20.456251,131.85579,-54.125473,0.4871426,0.33909196,0.30259982,0.59965175,0.6586864,985.9992
1747666376873,0.23928227,9.193225,6.6089764,-0.24365869,0.09040799,0.12064579,-36.581253,-68.100006,-20.081251,131.74197,-53.814762,0.77742755,0.33839196,0.29964694,0.6008536,0.65930074,985.9992
1747666376894,-0.2847459,9.542577,8.190632,0.11369721,0.44409868,0.21105379,-36.825,-67.74375,-20.175001,131.52249,-53.574528,0.8291795,0.33615124,0.3001683,0.60344875,0.6578381,985.99994
1747666376914,-0.42831525,9.674182,8.535198,0.4069123,0.4667007,0.3478875,-36.825,-67.481255,-20.268751,131.10474,-53.647926,0.70049024,0.33553654,0.30370283,0.606016,0.65415937,985.99994
1747666376936,0.13160525,9.643075,7.9800634,0.4557815,0.28038692,0.40775225,-36.206253,-67.21875,-20.400002,130.48508,-54.032173,0.67657006,0.33693844,0.30748954,0.6084278,0.6494138,986.01605
1747666376957,1.0959128,9.970892,7.216753,0.23587017,-0.041538805,0.32100943,-36.16875,-66.881256,-20.775002,129.39316,-54.75156,1.1498439,0.34019154,0.3095555,0.61066175,0.6446219,986.01605
1747666376979,1.0169497,10.277173,7.092326,0.05016727,-0.14782928,0.26175556,-35.943752,-66.84375,-20.737501,128.99791,-54.90451,1.579531,0.3427504,0.30866355,0.61170095,0.6427059,986.0434
1747666377000,1.2131611,10.114461,7.1617184,-0.08116866,-0.06536253,0.29168794,-36.018753,-66.637505,-20.34375,128.62589,-54.88912,1.999929,0.34462342,0.30640805,0.6135276,0.6410403,986.0434
1747666377021,0.89491564,9.631111,7.2287173,-0.17340924,0.18570289,0.20189081,-36.206253,-66.525,-20.41875,128.22305,-54.762257,2.365524,0.34472954,0.30473053,0.61559665,0.63979816,986.04095
1747666377042,0.27996024,9.367901,7.8317084,-0.18012875,0.3988947,0.13225223,-36.318752,-66.61875,-20.19375,127.866905,-54.54963,2.4518611,0.34252447,0.30458054,0.61817,0.63857156,986.04095
1747666377065,-0.20338993,8.800801,8.422736,-0.039629854,0.37751442,0.0876591,-36.54375,-66.412506,-20.1,127.43002,-54.244156,2.1779296,0.33852562,0.30600968,0.6213432,0.63693887,986.038
1747666377087,-0.5455636,8.293523,8.1020975,0.15401429,0.26450446,0.055283263,-36.35625,-66.20625,-19.85625,127.23069,-54.213146,1.968763,0.33644858,0.30781358,0.6229467,0.63560253,986.0495
1747666377108,-0.6628119,8.090134,6.862615,0.28779367,0.20647229,0.05222894,-36.581253,-66.3,-19.706251,127.073074,-54.456894,1.7623127,0.33607927,0.31090632,0.62351274,0.6337348,986.0495
1747666377129,-0.6963114,7.676175,5.572884,0.20960298,0.24556763,0.08949169,-36.318752,-66.46875,-20.081251,126.92613,-54.74204,1.629929,0.33645064,0.31369656,0.62373435,0.63194215,986.0466
1747666377150,-0.7896315,7.173682,4.912465,-0.06589704,0.3866774,0.10415245,-36.1875,-66.43125,-20.1,126.70885,-54.894093,1.4790641,0.33522004,0.31660464,0.62517893,0.6297144,986.0466
1747666377171,-1.0360922,7.04447,5.6374903,-0.30657777,0.4062251,0.14752385,-36.037502,-66.4875,-20.475,126.439,-54.766125,1.2529203,0.33179697,0.31788078,0.62768555,0.62838954,986.0495
1747666377192,-0.7465607,6.7118673,6.242874,-0.291917,0.16859868,0.19272783,-35.456253,-66.318756,-20.775002,126.123955,-54.41312,1.0814291,0.32728213,0.31726354,0.631397,0.62735003,986.0495
1747666377213,-0.41635114,6.352944,6.1304116,-0.10438152,0.016493348,0.19944735,-35.25,-66.225006,-20.90625,125.81838,-54.05489,1.1159217,0.32565793,0.31581205,0.6335961,0.62671006,986.04706
1747666377234,-0.20817557,6.0634127,5.4795637,0.16867504,-0.027488915,0.17134757,-35.1375,-65.8125,-21.0,125.487335,-53.892094,1.3416183,0.32613525,0.31513742,0.63469315,0.6256907,986.04706
1747666377256,0.10049855,5.9150577,4.2664027,0.41485354,0.059253883,0.13347395,-34.96875,-65.175,-21.09375,125.15573,-54.29585,1.5861536,0.32878697,0.31672654,0.6347577,0.62343085,986.04095
1747666377278,0.2632105,6.099305,3.6107693,0.4606684,0.22785257,0.06994402,-35.193752,-65.025,-20.75625,124.946236,-54.78951,1.6023047,0.33108628,0.31987098,0.63442415,0.6209432,986.04095
1747666377300,0.26081768,6.4558353,3.6634114,0.4484511,0.2913825,0.024740024,-35.362503,-65.006256,-20.75625,124.76252,-55.307617,1.4608867,0.3328013,0.32521388,0.6340522,0.617622,986.0263
1747666377320,0.10289137,6.795616,3.5102708,0.41179922,0.24312419,-0.0051923506,-35.41875,-65.100006,-21.075,124.623604,-55.814785,1.2606714,0.33359113,0.32852626,0.63371855,0.6157826,986.0263
1747666377341,-0.124426775,7.5062847,3.3355947,0.2609156,0.14416409,0.017409647,-35.100002,-65.325005,-21.018751,124.54518,-56.26278,1.0868686,0.33491033,0.33305633,0.6329404,0.6134289,986.01556
1747666377362,-0.050249275,8.01117,3.790231,0.09659299,0.21563527,0.024740024,-34.78125,-65.34375,-20.8125,124.45777,-56.5774,0.9810857,0.3353722,0.33600757,0.63286334,0.61164397,986.01556
1747666377384,-0.04546363,8.551949,4.7784667,0.026343543,0.2131918,3.054324E-4,-34.350002,-65.53125,-20.56875,124.31182,-56.750942,0.8096443,0.33450544,0.33782998,0.6334031,0.610555,985.998
1747666377404,-0.19860429,8.953942,5.8672013,0.13141228,0.07147118,0.013133593,-34.256252,-65.49375,-19.9125,124.21367,-56.860424,0.6222279,0.33378848,0.3395333,0.63375324,0.60963863,986.0019
1747666377426,-0.069391854,8.853444,5.922236,0.27068946,-0.037873615,0.013744458,-34.2,-65.7375,-19.725,124.18344,-57.071926,0.61846817,0.33481443,0.34079933,0.63327765,0.6088633,986.0019
1747666377447,0.24885355,9.126225,5.7523456,0.34521496,-0.025045456,-0.04734202,-33.9,-65.925,-19.837502,124.21403,-57.40914,0.6353877,0.33683905,0.34243512,0.63206303,0.60809046,986.0124
1747666377468,0.6197411,9.4229355,5.9557357,0.33483025,0.07880156,-0.12370012,-33.975002,-66.1875,-19.556252,124.3056,-57.79812,0.56526226,0.33904135,0.34544814,0.6301281,0.6071698,986.0124
1747666377490,0.95473623,9.777073,6.558727,0.26030475,0.067195125,-0.228158,-34.125,-66.43125,-19.612501,124.46695,-58.152798,0.36493766,0.33977532,0.34825805,0.62851477,0.60682636,986.0236
1747666377511,0.80159557,10.358529,6.7764735,0.1796706,-0.22113305,-0.31612253,-33.825,-66.450005,-19.44375,124.80369,-58.41469,0.10485074,0.3404627,0.350133,0.6261588,0.607797,986.0236
1747666377532,0.6436693,10.585847,6.1902323,0.057497647,-0.3176497,-0.29474226,-34.0875,-66.61875,-19.10625,125.4832,-58.6274,-0.0826654,0.342461,0.3501366,0.62217784,0.6107533,986.0319
1747666377553,0.39720857,10.430314,6.046663,-0.10254893,-0.06108648,-0.21349724,-33.80625,-66.61875,-18.975,125.993835,-58.66609,-0.1793921,0.34311125,0.34951827,0.61986965,0.6130851,986.0319
1747666377574,0.32542387,10.0163555,6.556334,-0.25954118,0.19058982,-0.18234314,-33.45,-66.7125,-18.84375,126.30987,-58.546093,-0.37111488,0.34144253,0.3494183,0.61932963,0.61461747,986.039
1747666377596,0.48095736,9.712467,7.393822,-0.33040148,0.112399116,-0.19456044,-33.300003,-66.7125,-18.806252,126.49731,-58.2427,-0.6856128,0.3379287,0.349261,0.6199305,0.61604154,986.039
1747666377618,0.19621146,8.819944,7.133004,-0.15569416,-0.36529714,-0.22021675,-32.79375,-66.58125,-18.993752,126.930626,-57.69256,-0.99000496,0.33506393,0.34659937,0.61926514,0.6197675,986.0546
1747666377640,0.17228323,8.346166,5.704489,-0.0029779659,-0.48685923,-0.19272783,-32.5875,-66.450005,-19.143751,127.40191,-57.510384,-0.94169813,0.33633727,0.34389287,0.6169434,0.62289304,986.0546
1747666377661,0.2632105,7.891529,4.453043,0.045891218,-0.29199335,-0.15668681,-32.625,-66.525,-19.29375,127.957146,-57.504196,-0.7809286,0.33904913,0.3414504,0.61377954,0.62588507,986.06146
1747666377681,0.26081768,7.6019974,3.8356948,0.005574141,0.034819294,-0.118202336,-32.4375,-66.15,-18.975,128.25267,-57.560257,-0.7717078,0.33982205,0.3412481,0.61231244,0.6270121,986.06146
1747666377702,0.13399807,7.432107,3.6801612,-0.120264,0.25106543,-0.055283263,-32.325,-65.925,-19.0125,128.36484,-57.565067,-0.93437535,0.33860818,0.34225065,0.61232203,0.627113,986.0534
1747666377724,-0.19142582,7.085148,4.130012,-0.27603453,0.25656322,0.02535089,-32.362503,-66.05625,-18.91875,128.31265,-57.420773,-1.1577983,0.33589223,0.3429437,0.6136767,0.6268707,986.0534
1747666377746,-0.2727818,6.6448684,4.74736,-0.34139705,0.07208204,0.12614357,-32.100002,-65.662506,-18.6375,128.16054,-57.10742,-1.2784846,0.3330784,0.34205866,0.615703,0.6268688,986.04047
1747666377769,0.086141616,6.046663,4.9579287,-0.24365869,-0.16371176,0.1707367,-32.006252,-65.45625,-18.7875,127.83956,-56.564003,-1.0648811,0.33127868,0.33891147,0.6181554,0.6271182,986.0278
1747666377790,0.08135597,5.9150577,4.618148,-0.052458014,-0.29565856,0.14019346,-31.7625,-65.100006,-19.0125,127.679214,-56.325768,-0.7297318,0.33210674,0.3350657,0.6192859,0.62763137,986.0278
1747666377813,0.36131623,6.1471615,4.4410787,0.12041672,-0.23090689,0.11942407,-31.9125,-64.9875,-18.975,127.56018,-56.274857,-0.26418316,0.33484167,0.332336,0.6191515,0.6277621,986.0251
1747666377833,0.53359944,6.290731,4.2664027,0.33910632,-0.20952661,0.057726722,-32.006252,-64.8,-18.7875,127.47491,-56.439224,0.03291122,0.33764437,0.33185574,0.618475,0.62718153,986.0251
1747666377853,0.8279166,6.6735826,3.438486,0.44112074,-0.1875355,0.009468404,-32.268753,-64.78125,-18.6375,127.45987,-56.819267,0.26478016,0.34147123,0.3326527,0.6168464,0.62629074,986.01654
1747666377873,1.038485,7.4105716,3.103491,0.33055422,-0.07269291,-0.02046397,-32.550003,-64.818756,-18.243752,127.49253,-57.315834,0.42509976,0.3451734,0.3342382,0.6149815,0.62525034,986.01654
1747666377895,1.0456635,8.128419,3.871587,0.11491894,-0.037262753,0.00763581,-32.49375,-64.96875,-17.8875,127.50791,-57.823673,0.51014256,0.3477905,0.33586472,0.6136579,0.62422806,986.00824
1747666377916,1.0671989,8.815159,5.020142,0.05383246,0.021380268,0.022296565,-32.287502,-65.137505,-17.925001,127.46957,-57.945713,0.57514435,0.34879628,0.33617556,0.6133895,0.6237632,986.00824
1747666377937,0.9499506,9.303294,6.2644095,0.15340342,0.118507765,-0.029626941,-32.04375,-65.0625,-17.75625,127.409966,-58.031345,0.5900862,0.3492402,0.33702618,0.61343205,0.62301344,986.0041
1747666377958,0.28235307,9.540184,6.6927247,0.28962627,0.16432263,-0.083993904,-31.706251,-65.11875,-17.4375,127.414314,-58.288372,0.4360291,0.34951627,0.3391698,0.6129823,0.6221374,986.0041
1747666377980,-0.5814559,10.114461,6.491728,0.33727372,0.2083049,-0.055283263,-31.518751,-65.30625,-17.1375,127.470985,-58.628212,0.21612847,0.35000005,0.34236,0.6120651,0.6210201,986.0268
1747666378000,-0.4354937,10.683953,6.7334027,0.2212094,0.27855435,0.04978548,-31.425001,-65.381256,-16.893751,127.43198,-58.966568,0.011655775,0.35025248,0.3464857,0.61167866,0.61896694,986.0268
1747666378022,-0.33260235,10.789237,7.152147,0.10453424,0.10995566,0.098654665,-31.181252,-65.606255,-17.025002,127.25304,-59.177094,-0.10627182,0.35005707,0.34856507,0.612312,0.61728144,986.04706
1747666378043,-0.3278167,10.559526,6.855437,-0.031688612,-0.09468404,0.14385866,-31.031252,-65.53125,-16.893751,127.07727,-59.251873,-0.042641833,0.35053727,0.3485349,0.6129099,0.6164321,986.04706
1747666378065,-0.46660042,10.313066,6.530013,-0.18257222,-0.08857539,0.13775001,-31.1625,-65.137505,-16.612501,126.84517,-59.114468,0.2893592,0.35127556,0.3463414,0.61383724,0.6163253,986.0673
1747666378086,-0.89013004,9.784252,6.762117,-0.24488042,0.06108648,0.11759147,-31.29375,-64.9875,-16.3125,126.63739,-58.804188,0.4600127,0.3501807,0.34411338,0.61558175,0.61645645,986.06976
1747666378107,-1.1581261,9.396614,6.8650084,-0.2173915,0.07086031,0.083993904,-31.35,-64.762505,-16.21875,126.49002,-58.51098,0.48856953,0.34835207,0.3427952,0.61720496,0.61660385,986.06976
1747666378128,-1.4548361,9.049655,6.4295144,-0.12637265,0.068416856,0.15118903,-31.462502,-65.006256,-16.050001,126.3559,-58.275673,0.50685006,0.3468088,0.34181017,0.61859185,0.6166309,986.0712
1747666378150,-1.0289137,8.432307,5.5633125,-0.12148573,0.07696896,0.23365578,-31.10625,-64.668755,-15.993751,126.09975,-58.129467,0.6060835,0.34579894,0.3408958,0.6206832,0.61560184,986.0712
1747666378170,-0.25124636,7.7814593,5.0656056,-0.19784383,0.05070178,0.19944735,-31.218752,-64.481255,-15.937501,125.75698,-57.967537,0.77968526,0.34508935,0.33970612,0.6227129,0.614607,986.0666
1747666378191,-0.2440679,7.1712894,4.685147,-0.25709772,0.08307761,0.11209369,-31.331251,-64.2375,-16.10625,125.46744,-57.73512,0.9444328,0.34398046,0.33816588,0.6246051,0.6141577,986.0666
1747666378212,-0.63170516,6.9894347,4.6061835,-0.31451902,0.20952661,0.017409647,-31.5375,-63.61875,-16.03125,125.29018,-57.439857,0.98712,0.34107617,0.3367826,0.6267842,0.6143176,986.0617
1747666378233,-0.9164511,6.984649,4.76411,-0.29313874,0.26083925,0.013744458,-31.612501,-63.600002,-16.181252,125.1979,-57.095497,0.8530545,0.3376608,0.33639956,0.62857646,0.61458296,986.0617
1747666378255,-1.012164,6.798009,4.7784667,-0.22655447,0.24740024,0.06750056,-31.48125,-63.6375,-15.637501,125.040535,-56.620934,0.56995577,0.3344288,0.33630478,0.63040054,0.61453366,986.0522
1747666378277,-0.7704889,6.62094,5.003392,-0.107435845,0.16126831,0.107817635,-31.29375,-63.54375,-15.900001,124.81537,-56.351143,0.44088748,0.33143276,0.33633322,0.6326103,0.6138701,986.0522
1747666378298,-0.3589234,6.364908,4.881358,0.07704532,0.03848448,0.12064579,-31.2,-63.581253,-16.087502,124.62791,-56.291645,0.4646428,0.33072627,0.33638924,0.63374543,0.6130491,986.03754
1747666378319,-0.09092726,6.3457656,4.3262234,0.23953535,-0.03848448,0.10476331,-31.050001,-63.375004,-16.21875,124.462616,-56.421593,0.5696352,0.33166265,0.33688593,0.6340644,0.61193967,986.03754
1747666378342,0.36370903,6.5778694,3.17049,0.29329145,-0.039095346,0.062002774,-31.518751,-63.45,-16.368752,124.335304,-56.71812,0.71415687,0.33515635,0.33857426,0.6332272,0.60996807,986.0346
1747666378364,0.5240282,7.092326,2.8881369,0.19921827,0.12400555,-0.021074835,-31.48125,-63.281254,-15.975,124.242004,-57.06191,0.8169222,0.3368199,0.34033456,0.6325798,0.60874254,986.0346
1747666378384,0.038285162,7.7551384,3.4121652,0.10270164,0.32375833,-0.09315688,-31.35,-63.2625,-15.843751,124.19934,-57.422905,0.60472417,0.33655664,0.3428547,0.63232464,0.6077383,986.0236
1747666378405,-0.40677986,8.475378,4.328616,0.06055197,0.44715303,-0.10231985,-31.0125,-62.925003,-15.618751,124.19371,-57.582115,0.12206015,0.3340188,0.34696946,0.63265926,0.6064536,986.0158
1747666378426,-0.6053841,8.891729,5.1900325,0.069104075,0.34941465,-0.065667965,-31.10625,-63.112503,-15.450001,124.16343,-57.66897,-0.29727995,0.33144736,0.35035214,0.6332324,0.6053204,986.0158
1747666378447,-0.6963114,9.23151,5.948557,0.11919499,0.11117739,-0.017409647,-31.06875,-63.187504,-15.13125,124.14246,-57.765255,-0.5735688,0.32994795,0.35280773,0.63348925,0.6044439,986.0214
1747666378469,-0.3278167,9.367901,5.9581285,0.19433136,-0.20708317,0.013133593,-30.975,-63.281254,-15.093751,124.156555,-57.918087,-0.60569966,0.33107924,0.3538706,0.6327199,0.6040097,986.0214
1747666378489,0.15792629,9.454042,5.5202417,0.18516839,-0.25534147,-0.044898562,-30.975,-63.7125,-15.000001,124.24339,-58.134453,-0.44430882,0.33381957,0.35360107,0.6311721,0.6042785,986.0339
1747666378509,0.37088752,9.71486,5.8217373,0.14729477,-0.11056653,-0.13041963,-30.843752,-63.825,-15.075001,124.408646,-58.342636,-0.32709578,0.3359474,0.3536424,0.62948817,0.60483146,986.0339
1747666378531,0.6723832,10.250853,6.5084777,0.15401429,-0.05131264,-0.23426664,-30.525002,-63.6375,-14.793751,124.70956,-58.548077,-0.43215182,0.33690587,0.35485122,0.62741417,0.60574454,986.0402
1747666378552,0.6771688,10.557134,6.4941206,0.17417282,-0.17287473,-0.33139414,-30.393751,-63.656254,-14.625001,125.10348,-58.713654,-0.634381,0.33742332,0.3557118,0.625646,0.60677975,986.0402
1747666378574,0.16271193,10.863415,5.881558,0.13019055,-0.1404989,-0.38148504,-30.393751,-63.7125,-14.19375,125.68394,-58.89577,-0.87267864,0.33867368,0.35695022,0.62159294,0.6095153,986.04803
1747666378594,-0.23449662,10.837093,5.651847,-0.00481056,0.16920954,-0.35582873,-30.300001,-63.768753,-13.968751,126.27741,-59.032738,-1.200972,0.33841342,0.3584678,0.6188426,0.61156446,986.04803
1747666378615,-0.7680961,10.612168,6.518049,-0.22411102,0.5369501,-0.27397284,-30.13125,-63.975002,-13.9125,126.838745,-58.919548,-2.0476682,0.33391264,0.36171293,0.6180767,0.61290073,986.05316
1747666378636,-0.7896315,10.059426,7.8891363,-0.30841035,0.2932151,-0.1273653,-30.243752,-64.21875,-13.481251,126.95371,-58.583782,-2.6503687,0.32832733,0.3637652,0.6194051,0.6133624,986.05316
1747666378656,-0.33260235,9.049655,7.635497,-0.2314414,-0.3695732,-0.0754418,-29.718752,-64.275,-13.743751,127.0769,-58.20996,-2.8370092,0.32549673,0.3626171,0.6201762,0.61477,986.06146
1747666378677,0.11964113,8.274381,6.2213387,-0.119653136,-0.6682861,-0.09376775,-29.625002,-64.387505,-13.9125,127.48734,-57.889126,-2.4953437,0.32747823,0.3572394,0.6184509,0.6185924,986.06146
1747666378699,0.45942193,7.618747,4.955536,-0.017027855,-0.4978548,-0.11270455,-29.531252,-64.275,-13.81875,127.86939,-57.779152,-2.154508,0.33041558,0.3531414,0.61620706,0.62161523,986.0788
1747666378720,0.64845496,7.2670026,4.1850467,0.030008731,-0.08185588,-0.14813471,-29.531252,-64.125,-13.89375,128.17986,-57.77308,-1.9890839,0.33266157,0.35095042,0.6139487,0.62388873,986.0788
1747666378742,0.0071784677,7.176075,4.24726,0.015958842,0.29626942,-0.15546508,-29.8875,-63.843754,-13.687501,128.38855,-57.807,-2.125392,0.33193722,0.3521063,0.6132129,0.62434673,986.06366
1747666378763,-0.63888365,7.0348988,4.493721,-0.029856017,0.30604327,-0.046731155,-29.831251,-63.787502,-13.2375,128.48329,-57.81957,-2.4810293,0.32907474,0.35503533,0.6136037,0.62381905,986.06366
1747666378785,-0.74416786,6.6185474,4.213761,-0.11598795,0.06597339,0.10476331,-29.812502,-63.675003,-13.312501,128.38112,-57.740707,-2.802126,0.32735786,0.35604015,0.6145761,0.62319213,986.0463
1747666378806,-0.45702913,6.113662,3.6801612,-0.25770858,-0.15271619,0.19456044,-29.643751,-63.768753,-13.575001,128.12971,-57.52247,-2.5989301,0.326846,0.3540774,0.6162488,0.6229272,986.0407
1747666378827,-0.078963146,6.046663,3.735196,-0.35850126,-0.22357652,0.22082762,-29.8875,-63.80625,-13.687501,127.888916,-57.20028,-2.2411575,0.32687074,0.3504331,0.61792547,0.6233139,986.0407
1747666378848,0.17228323,5.936593,4.2568316,-0.30902123,-0.21807873,0.21899502,-29.94375,-63.581253,-13.70625,127.63206,-56.821487,-1.8365625,0.3268441,0.3462333,0.6197826,0.62383085,986.0356
1747666378869,0.30388847,6.0729837,4.476971,-0.13614649,-0.22052218,0.182954,-30.431252,-63.768753,-13.25625,127.3921,-56.536304,-1.435391,0.32731044,0.3425811,0.621289,0.62410426,986.0356
1747666378889,0.29192436,6.4438715,4.2975097,0.047112945,-0.16493349,0.13469568,-30.806252,-63.45,-12.918751,127.21747,-56.44919,-1.0838058,0.3286799,0.34021145,0.6219409,0.6240314,986.0234
1747666378911,0.68195444,7.070791,4.0797625,0.13263401,-0.05742129,0.08155045,-30.975,-63.43125,-13.106251,127.0772,-56.54571,-0.83288664,0.33089194,0.33943883,0.62201273,0.623211,986.0234
1747666378931,0.5694918,7.597212,4.3405805,0.08987348,-0.03848448,0.018631376,-31.06875,-63.45,-13.35,126.96827,-56.701664,-0.680261,0.33229655,0.33965677,0.62186426,0.62249273,986.01483
1747666378952,0.31345975,8.319844,5.139783,0.076434456,-0.023823727,-0.03084867,-31.06875,-63.3375,-13.70625,126.942444,-56.81519,-0.60973936,0.33335185,0.33994618,0.62139624,0.6222378,986.01483
1747666378973,0.15074782,8.922835,5.73081,0.13996439,-0.046425723,-0.01802051,-31.143751,-63.35625,-14.118751,126.99103,-56.94089,-0.60380083,0.33410507,0.34046823,0.6208135,0.62213004,986.0136
1747666378995,0.17467605,9.265009,6.0729837,0.19310963,-0.056199558,-0.031459536,-31.06875,-63.412502,-13.950001,127.02864,-57.109035,-0.57662624,0.33541206,0.34114185,0.62002844,0.6218406,986.0136
1747666379016,-0.35174492,9.518648,6.3768725,0.2511418,-0.060475614,-0.053450666,-31.25625,-63.525,-14.08125,127.152016,-57.449284,-0.57052934,0.33728623,0.34241453,0.61857873,0.62157106,986.0214
1747666379037,-0.59342,9.999606,6.491728,0.2945132,-0.027488915,-0.00641408,-31.050001,-63.581253,-14.3625,127.23573,-57.743042,-0.59355766,0.3389549,0.34392872,0.6172945,0.62110394,986.0214
1747666379058,-0.3278167,10.691132,6.4606214,0.25725043,-0.05131264,0.022296565,-30.956251,-63.61875,-14.625001,127.26048,-58.057327,-0.5866136,0.34122786,0.34584284,0.6159681,0.6201126,986.03143
1747666379078,-0.2847459,10.671989,5.9964137,0.16073379,0.008552107,0.092546016,-30.54375,-63.468754,-14.925,127.2361,-58.330566,-0.52189523,0.34297878,0.34682548,0.61534023,0.61922055,986.03143
1747666379099,-0.14117654,10.595419,5.690132,-0.06589704,0.11300998,0.15057817,-30.35625,-63.468754,-15.281251,127.01033,-58.494198,-0.40905753,0.34359878,0.3473688,0.6159187,0.61799586,986.0422
1747666379120,-0.53359944,10.2317095,5.802595,-0.36705336,0.3035998,0.15607595,-30.50625,-63.45,-15.450001,126.71754,-58.34337,-0.34842452,0.3423416,0.34698877,0.61782193,0.61700654,986.0422
1747666379142,-1.0767702,10.090533,7.2693954,-0.62422746,0.51190466,0.13225223,-30.975,-63.750004,-15.4875,126.356804,-57.84895,-0.4622883,0.33626693,0.3458873,0.6225087,0.6162543,986.0451
1747666379163,-1.847259,9.779466,8.7577305,-0.5558106,0.39767298,0.17989968,-31.575,-63.9,-15.13125,125.98462,-57.134777,-0.705974,0.32963857,0.3445984,0.6270529,0.6159505,986.0451
1747666379185,-1.5290136,9.102298,8.736196,-0.21433719,0.11484258,0.2849684,-31.612501,-63.656254,-15.712501,125.41991,-56.288174,-0.79346114,0.3244529,0.34246466,0.6316235,0.6152236,986.0551
1747666379206,-0.485743,8.221739,7.1186476,0.05261073,-0.028099779,0.2953531,-31.66875,-63.43125,-15.8625,125.00072,-56.134235,-0.52514404,0.32420126,0.3410205,0.6339104,0.6138046,986.08344
1747666379227,-0.19142582,7.5900335,5.7140603,0.10881029,0.011606431,0.18234314,-31.518751,-62.943752,-16.462502,124.639725,-56.1922,-0.22807696,0.32573712,0.34040955,0.63542473,0.6117615,986.08344
1747666379248,-0.71306115,7.200003,4.8861437,0.031230463,0.053145237,0.13041963,-31.650002,-62.79375,-16.725,124.34566,-56.29931,-0.034081265,0.32647237,0.34057117,0.63614154,0.6105334,986.0849
1747666379268,-1.2993027,7.21436,4.6899323,-0.0891099,0.08552107,0.16951497,-32.006252,-62.625004,-16.800001,124.13383,-56.27421,0.031494092,0.3261737,0.3405898,0.6372101,0.6095677,986.0849
1747666379289,-1.2753744,7.042077,4.7688956,-0.15691589,0.03604102,0.2904662,-32.025,-62.456253,-17.19375,123.82742,-56.141354,0.17204869,0.32554543,0.3397794,0.6389598,0.6085232,986.06976
1747666379310,-0.7298109,6.570691,4.910072,-0.1306487,-0.032375835,0.35399613,-32.081253,-62.250004,-17.15625,123.38864,-55.963043,0.46475986,0.32538372,0.33761075,0.64190114,0.6067186,986.06976
1747666379332,-0.2727818,6.1639113,4.8263235,-0.0072540194,-0.11056653,0.3197877,-32.643753,-62.1375,-17.306252,122.91646,-55.81915,0.8612237,0.32620627,0.33560523,0.6440012,0.6051621,986.06244
1747666379354,0.1052842,6.142376,4.3669014,0.1674533,-0.14172062,0.24404047,-32.8875,-62.156254,-17.681252,122.50988,-55.8004,1.2787235,0.32867187,0.33398956,0.6453962,0.6032327,986.06244
1747666379376,0.148355,6.3338017,3.6801612,0.2767981,-0.05070178,0.18723005,-33.825,-61.95,-17.681252,122.065575,-56.090214,1.7996823,0.33140227,0.3339671,0.64556587,0.6015673,986.05853
1747666379397,0.22731815,6.666404,3.3810585,0.28473935,0.06475167,0.16279547,-33.412502,-62.081253,-17.775002,121.79768,-56.411194,2.0009165,0.33379784,0.33518293,0.6456041,0.5995221,986.05853
1747666379418,0.16749759,7.0779696,3.6059837,0.23587017,0.14599667,0.10476331,-33.881252,-62.287502,-17.60625,121.46754,-56.801426,2.0956225,0.3356499,0.3376335,0.6459129,0.59677416,986.0368
1747666379439,0.09571291,7.5900335,3.8668015,0.19005531,0.13439025,0.053450666,-33.975002,-62.30625,-17.456251,121.27777,-57.06706,2.0821583,0.33645478,0.33970296,0.6460674,0.5949765,986.0368
1747666379461,0.033499517,8.152347,4.398008,0.14790563,0.13927718,0.009468404,-34.10625,-62.550003,-17.400002,121.15961,-57.285114,2.0180361,0.33687183,0.34210655,0.6460778,0.5933497,986.0224
1747666379482,0.0526421,8.707481,4.833502,0.13752094,0.03054324,0.00763581,-34.575,-62.268753,-17.41875,121.097534,-57.463646,1.9233838,0.33704087,0.3437429,0.6459274,0.5924711,986.0224
1747666379504,0.51445687,8.865408,5.1589255,0.16562071,-0.058032155,0.016798781,-34.4625,-62.175003,-17.34375,121.05692,-57.725056,1.9322755,0.3383229,0.34485862,0.64532995,0.59174263,986.0224
1747666379526,0.552742,8.796016,5.326423,0.17905974,-0.06108648,-0.05222894,-34.5,-62.11875,-17.2875,121.05407,-57.822163,1.9617381,0.3397795,0.3455961,0.64449775,0.5913848,986.0224
1747666379547,0.8111669,9.2793665,6.15434,0.2022726,0.033597562,-0.19089524,-34.631252,-62.437504,-17.962502,121.283455,-58.185028,1.8461796,0.34085095,0.3472574,0.6428675,0.5915694,986.03436
1747666379569,0.72263247,9.686146,6.8602223,0.26030475,0.02565632,-0.2800815,-34.425003,-62.812504,-18.243752,121.593636,-58.43446,1.5694033,0.34108788,0.34954637,0.64100707,0.5921033,986.03436
1747666379590,0.9284152,10.305887,7.140183,0.27618724,-0.29016078,-0.3741547,-34.21875,-62.9625,-18.46875,122.072914,-58.724808,1.2799425,0.34195867,0.35166094,0.6381703,0.59341186,986.03436
1747666379611,1.0983056,10.4566345,6.0490556,0.2248746,-0.66034484,-0.39675668,-34.0125,-63.16875,-18.6375,122.79761,-59.020046,1.149406,0.34577805,0.35177577,0.6324555,0.59723645,986.0485
1747666379633,1.1700903,10.19821,5.3336015,0.061162837,-0.4508182,-0.37476555,-34.237503,-63.300003,-18.393751,123.62,-59.272594,1.1649476,0.35022044,0.35013562,0.6264536,0.60191905,986.0485
1747666379655,0.89491564,9.745967,5.6997037,-0.15019637,-0.0061086477,-0.4205804,-34.65,-63.35625,-17.550001,124.66165,-59.360424,0.94205964,0.35077497,0.3496244,0.62331986,0.60513806,986.049
1747666379676,0.63888365,9.97807,7.499106,-0.3249037,0.17592905,-0.5183188,-34.800003,-63.562504,-17.56875,125.43241,-59.035614,0.24575955,0.3463466,0.35042542,0.621533,0.6090507,986.049
1747666379698,-0.27517462,9.757931,8.563912,-0.18073961,-0.19364414,-0.4987711,-35.100002,-63.73125,-17.737501,126.185326,-58.659748,-0.35250345,0.34236103,0.35034627,0.6197646,0.613138,986.0629
1747666379718,-0.57188463,9.164511,7.647461,0.08987348,-0.49235702,-0.39858928,-35.23125,-63.825,-17.90625,127.01171,-58.483845,-0.67942345,0.34162334,0.3492463,0.61646765,0.61748534,986.0629
1747666379739,0.014356935,8.599805,5.541777,0.2627482,-0.5497783,-0.3234529,-35.15625,-64.18125,-18.300001,127.79377,-58.60051,-0.7380198,0.34511217,0.34772834,0.6108532,0.6219654,986.06854
1747666379760,0.1698904,8.087741,3.938586,0.22670719,-0.2357938,-0.29901832,-35.23125,-64.2375,-18.581251,128.46452,-58.877556,-0.74734205,0.3482545,0.34766632,0.60665226,0.6243557,986.06854
1747666379782,-0.32542387,7.8029947,3.5389848,0.014737112,0.24678937,-0.25809038,-35.268753,-64.725006,-18.28125,128.94716,-59.10735,-0.963444,0.3485963,0.34942847,0.6042323,0.6255268,986.05316
1747666379802,-1.2083755,7.664211,4.304688,-0.18501566,0.28344125,-0.12858704,-34.987503,-64.8375,-18.1875,129.2106,-59.127342,-1.4077277,0.34500378,0.35230947,0.6040633,0.6260655,986.05316
1747666379822,-1.4596218,7.2550383,4.316652,-0.2711476,-0.018936807,0.054672398,-35.23125,-65.2125,-18.375,129.30884,-58.870857,-1.8163742,0.3423592,0.35232833,0.60496134,0.6266392,986.0434
1747666379843,-1.1365907,6.7740808,3.6658044,-0.35178176,-0.29016078,0.22143848,-35.268753,-65.30625,-18.337502,129.22908,-58.561703,-1.7120403,0.34170514,0.34938884,0.606175,0.62746865,986.0434
1747666379864,-0.5479564,6.2261243,3.333202,-0.4379137,-0.33597562,0.32162032,-35.081253,-64.950005,-19.0125,128.85527,-57.955353,-1.0013647,0.34222382,0.343069,0.6084126,0.62850666,986.0285
1747666379886,0.0047856453,5.905486,3.7806597,-0.39026624,-0.21991132,0.32833982,-35.325,-64.74375,-18.975,128.48346,-57.49893,-0.4445139,0.34244138,0.3377812,0.61081207,0.6289248,986.01605
1747666379907,0.45702913,5.8241305,4.316652,-0.16668972,-0.11300998,0.24770567,-35.625,-64.668755,-18.712502,128.10146,-57.146606,0.018366987,0.34252372,0.33381408,0.6131392,0.6287336,986.01605
1747666379929,0.67477596,6.1734824,4.2831526,0.08071051,-0.047647454,0.15363249,-35.9625,-64.387505,-18.65625,127.81022,-57.03704,0.34203556,0.3432498,0.33187765,0.61451167,0.6280225,986.01874
1747666379951,0.53359944,6.7764735,3.842873,0.24686573,0.058032155,0.0736092,-36.375,-64.18125,-18.675001,127.613754,-57.18257,0.5205529,0.34506956,0.33232144,0.61485994,0.6264477,986.01874
1747666379971,0.35653058,7.4943204,3.8117664,0.24075708,0.09224058,0.06933315,-36.600002,-63.956253,-18.806252,127.433624,-57.535576,0.57993007,0.34651357,0.33402756,0.61470217,0.6248961,986.01434
1747666379994,0.4761717,8.281559,4.1276193,0.15157083,0.059253883,0.12370012,-36.3375,-63.600002,-18.900002,127.2712,-57.80437,0.61861336,0.34810638,0.33596522,0.6147622,0.62290996,986.01434
1747666380016,0.8925229,8.73141,4.666004,0.055665053,0.04092794,0.1084285,-36.46875,-63.600002,-18.7875,126.944534,-58.0439,0.7946226,0.3493816,0.33669454,0.6154278,0.62114245,986.0195
1747666380037,0.46660042,9.209974,5.613562,0.017791437,0.10140356,0.036346454,-36.318752,-63.73125,-19.10625,126.784935,-58.091087,0.8580066,0.34961018,0.33699247,0.6160407,0.620244,986.0195
1747666380058,-0.009571291,9.7196455,6.5204415,0.08132137,0.04886918,0.029016078,-36.412502,-63.9,-19.181252,126.69683,-58.122055,0.83428705,0.34935582,0.3377541,0.616525,0.61949146,986.02875
1747666380078,0.1363909,9.891929,6.6735826,0.18761185,-0.02443459,0.004581486,-36.600002,-64.21875,-19.5375,126.65275,-58.2211,0.83616376,0.3500448,0.3384369,0.61628866,0.61896485,986.02875
1747666380099,0.4881358,10.188639,6.283552,0.25480697,-0.031154104,-0.06994402,-36.675003,-64.162506,-19.6875,126.67031,-58.433567,0.8432798,0.35139856,0.33962977,0.61540467,0.61842364,986.04974
1747666380122,0.3900301,10.595419,5.7140603,0.14424044,-0.11911863,-0.15302163,-36.84375,-64.0875,-19.6875,126.839226,-58.770214,0.774035,0.35323435,0.34128,0.6134318,0.61842936,986.04974
1747666380142,0.019142581,10.593026,5.300102,-0.05184715,-0.11728604,-0.12370012,-36.862503,-64.125,-20.1,127.0949,-58.932766,0.6944357,0.3540863,0.34160954,0.6118276,0.6193486,986.0671
1747666380162,0.031106694,10.557134,5.4556355,-0.37194028,0.056199558,-0.07910699,-36.7125,-64.125,-20.493752,127.29712,-58.844845,0.632398,0.35325274,0.34064975,0.6114792,0.6206959,986.0671
1747666380182,-0.54317075,10.2723875,6.611369,-0.5729148,0.40194902,-0.06139191,-36.300003,-64.4625,-21.13125,127.38,-58.44504,0.4891529,0.34947747,0.33935916,0.61296,0.6220779,986.0805
1747666380203,-0.99302137,9.982856,8.200203,-0.57230395,0.5760455,-0.03084867,-36.15,-64.387505,-21.0,127.319534,-57.81138,0.12282716,0.3427512,0.33896887,0.6161526,0.6228787,986.0805
1747666380224,-1.2155539,9.377472,9.097511,-0.33223408,0.3158171,0.053450666,-35.943752,-64.012505,-20.98125,127.09587,-56.87992,-0.5007645,0.33459598,0.33892822,0.6203244,0.62319416,986.1003
1747666380246,-0.7585248,8.484949,8.444271,-0.07139482,0.07147118,0.13530655,-36.05625,-63.7125,-20.962502,126.88338,-56.47799,-0.6128185,0.33102188,0.33812994,0.6228878,0.6229795,986.1174
1747666380267,0.0023928226,7.786245,7.2670026,0.07765619,-0.07208204,0.116980605,-36.393753,-63.45,-20.962502,126.70523,-56.42009,-0.48083758,0.33104938,0.33745915,0.6238528,0.6223627,986.1174
1747666380289,0.0741775,7.281359,5.697311,0.1051451,-0.17104214,0.008857539,-36.581253,-63.45,-21.50625,126.645805,-56.491726,-0.30343378,0.3324343,0.33684942,0.6237142,0.6220937,986.1171
1747666380310,-0.701097,7.2263246,4.615755,0.0184023,-0.14477496,-0.015577052,-36.693752,-63.693752,-21.431252,126.72538,-56.5703,-0.18429019,0.33414665,0.3360973,0.6226696,0.6226292,986.1171
1747666380376,-0.5383851,6.343373,4.3740797,0.0184023,0.02443459,0.18906265,-37.0125,-63.187504,-22.275002,126.32476,-56.449585,0.15267293,0.3344011,0.33442912,0.6247141,0.6213416,986.06903
1747666380396,-0.41874397,6.1399827,4.031906,0.117362395,-0.080634154,0.17195843,-37.18125,-63.075,-22.275002,126.1304,-56.477303,0.28883985,0.33523396,0.3341571,0.6255923,0.6201544,986.06903
1747666380416,-0.23928227,6.24766,3.5964124,0.18211406,-0.08491021,0.16646065,-37.3875,-62.831253,-22.03125,125.8222,-56.703262,0.64242285,0.33767155,0.33396164,0.62580305,0.61872303,986.05585
1747666380438,0.09571291,6.3601227,3.4121652,0.22243114,0.005497783,0.16157374,-37.518753,-63.000004,-21.75,125.59724,-56.932278,0.85555786,0.33974418,0.334411,0.6259371,0.6172082,986.05585
1747666380459,0.21535404,6.5898337,3.3954153,0.24258968,0.10384701,0.11453715,-37.706253,-63.037502,-21.300001,125.361755,-57.199753,0.9902336,0.34146228,0.33562624,0.6261442,0.6153877,986.04047
1747666380481,0.09092726,7.1545396,3.4049866,0.22243114,0.13561198,0.054672398,-37.6875,-63.131252,-21.28125,125.16364,-57.48669,1.0151582,0.34286538,0.3381012,0.62627727,0.6131131,986.04047
1747666380501,-0.17228323,7.8460655,3.6777685,0.14240785,0.108123064,0.021074835,-37.85625,-63.43125,-21.375,125.03407,-57.744884,0.97020125,0.34347257,0.34009925,0.6262208,0.6117243,986.03046
1747666380522,-0.29192436,8.288737,4.1204405,0.061773703,0.051923506,0.01924224,-37.93125,-63.525,-21.50625,124.958885,-57.926174,0.90880865,0.34381413,0.34176305,0.62614226,0.6106846,986.03046
1747666380544,-0.37328035,8.669196,4.709075,0.059941106,0.040317077,0.030237807,-37.8375,-63.61875,-21.75,124.8971,-58.04784,0.87107176,0.343949,0.3423042,0.6261415,0.61030626,986.02386
1747666380565,0.07178468,9.135797,5.6853466,0.1833358,0.05864302,0.024129158,-38.081253,-63.73125,-21.581251,124.807365,-58.237568,0.86225593,0.34466392,0.3436355,0.6260221,0.6092765,986.0358
1747666380586,0.21296121,9.286545,6.1830535,0.28596106,0.017104214,-0.05222894,-38.25,-63.825,-21.618752,124.791016,-58.487144,0.8211768,0.3456692,0.34531045,0.6254206,0.608377,986.0358
1747666380607,-0.03589234,9.722038,6.1208405,0.34154978,-0.12950334,-0.15607595,-38.5875,-64.012505,-21.375,124.94715,-58.825386,0.7338953,0.34733436,0.34726492,0.6237188,0.6080632,986.04877
1747666380629,0.0,10.305887,5.9700923,0.32322383,-0.17470732,-0.1640172,-38.362503,-63.80625,-21.50625,125.25123,-59.199253,0.64399785,0.3496261,0.34897003,0.6211097,0.60844404,986.04877
1747666380649,0.79920274,10.705488,6.0227346,0.26580253,-0.26450446,-0.21899502,-38.550003,-63.9,-21.4125,125.57259,-59.54915,0.5772331,0.3526105,0.35057366,0.61772925,0.60924095,986.06195
1747666380672,1.0408778,10.789237,5.4221363,0.16439898,-0.33964083,-0.28924447,-38.4,-63.825,-21.45,126.0015,-59.847614,0.52674246,0.35582957,0.35096696,0.61360097,0.6113112,986.06195
1747666380692,1.038485,10.971092,5.0943193,-0.010308343,-0.15515965,-0.32223117,-38.49375,-64.106255,-21.31875,126.67515,-60.087223,0.42044258,0.35733175,0.35090303,0.6105073,0.6135649,986.0566
1747666380713,0.70588267,10.686346,5.1349974,-0.22288929,0.20769402,-0.33322674,-38.456253,-64.575005,-21.487501,127.177795,-60.094143,0.17809068,0.35643515,0.35131878,0.6086181,0.61572164,986.0566
1747666380735,0.2321038,10.475778,6.4821568,-0.49228066,0.5064069,-0.32467464,-38.9625,-65.15625,-21.225,127.69098,-59.616516,-0.6414449,0.35014558,0.3529187,0.60906863,0.61796594,986.05756
1747666380756,0.1268196,10.13839,7.6163545,-0.54298246,0.30787584,-0.25870124,-38.9625,-65.325005,-21.09375,127.81335,-59.32126,-0.97274446,0.3449043,0.35336772,0.6102937,0.6194464,986.05756
1747666380778,0.38763726,9.142975,7.472785,-0.35850126,-0.17226386,-0.14263692,-38.625,-65.287506,-21.6375,128.19862,-58.421703,-1.5145386,0.33922446,0.35119438,0.6114457,0.62267435,986.0727
1747666380799,1.0336994,8.262417,6.367301,-0.18501566,-0.37873617,-0.1725693,-38.8125,-65.231255,-21.50625,128.4858,-58.035572,-1.4785216,0.33835617,0.34717625,0.6107098,0.6261129,986.0727
1747666380821,0.9164511,7.7383885,5.245067,-0.050625417,-0.28038692,-0.25870124,-38.4,-65.287506,-22.03125,128.88657,-57.821877,-1.3884091,0.339129,0.34451765,0.60882145,0.6289958,986.06854
1747666380841,0.3493521,7.475178,4.6875396,0.058108512,0.056199558,-0.28619015,-38.268753,-65.0625,-22.3875,129.4526,-57.7559,-1.5164504,0.33923963,0.3441982,0.60624504,0.631594,986.06854
1747666380865,-0.40677986,7.2861447,4.6085763,0.10942116,0.26633704,-0.21899502,-38.625,-65.025,-22.462502,129.80917,-57.818863,-1.879108,0.3379384,0.34653276,0.6049044,0.63229996,986.06
1747666380887,-0.82313097,6.9415784,4.4315076,0.12713623,0.12400555,-0.076052666,-38.643753,-64.818756,-22.462502,130.09073,-57.987247,-2.440366,0.3363094,0.34994084,0.6040265,0.63213086,986.0617
1747666380909,-0.5814559,6.5347986,4.0965123,0.13019055,-0.092851445,0.058337588,-38.850002,-65.043755,-22.40625,130.13336,-58.121742,-2.5370574,0.3367956,0.35134137,0.60344535,0.6316499,986.0617
1747666380930,-0.4354937,6.218946,3.4911282,0.048334677,-0.34086254,0.14691298,-38.79375,-65.381256,-22.29375,130.08914,-58.261692,-2.3722992,0.3388439,0.3505934,0.60300803,0.63138765,986.0527
1747666380951,-0.18903299,6.262017,3.3236306,-0.09705114,-0.53511757,0.20799945,-38.475002,-65.4,-22.518751,130.011,-58.31953,-1.9680023,0.34183434,0.3476237,0.60264516,0.63176405,986.0527
1747666380973,0.07178468,6.3218374,3.615555,-0.093996815,-0.56627166,0.2611447,-38.98125,-65.86875,-22.1625,129.87148,-58.21151,-1.2070594,0.34519756,0.3429262,0.6025188,0.6326226,986.0441
1747666380996,0.8063812,6.5946193,3.7710886,0.114308074,-0.3921752,0.228158,-39.393753,-65.4,-22.06875,129.5811,-58.203213,-0.22444536,0.3509542,0.33672294,0.6024486,0.63285434,986.0441
1747666381018,1.0408778,7.0205417,3.8261235,0.29206973,-0.118507765,0.10598504,-40.068752,-65.53125,-21.825,129.40845,-58.42109,0.20749165,0.35458398,0.3353186,0.602008,0.6319953,986.03436
1747666381039,1.0145568,7.597212,3.9840498,0.3830886,0.054366965,0.029016078,-40.7625,-65.475006,-21.675001,129.28561,-58.79054,0.36930186,0.35737112,0.33647656,0.60131717,0.6304658,986.03436
1747666381060,0.95473623,8.293523,4.0941195,0.3757582,0.09651663,-0.023518294,-41.30625,-65.475006,-21.2625,129.20142,-59.233784,0.38007528,0.36015218,0.3396686,0.6002121,0.62822056,986.03754
1747666381080,0.6221339,8.721839,4.4434714,0.30428702,0.14477496,-0.07788526,-41.325,-65.7375,-21.0375,129.17438,-59.661915,0.31279466,0.36176822,0.34249657,0.5991985,0.6267224,986.03754
1747666381102,-0.04546363,9.150154,4.981857,0.24136795,0.16249003,-0.092546016,-41.4,-65.7375,-20.868752,129.21088,-60.011765,0.1513969,0.36244175,0.34538662,0.59828264,0.62562126,986.03705
1747666381123,-0.63888365,9.769895,5.352744,0.11675153,0.10445788,-0.013133593,-41.25,-66.131256,-20.71875,129.27615,-60.328945,-0.08440435,0.36262372,0.3482928,0.5975172,0.6246354,986.03705
1747666381145,-0.6029913,10.238888,5.948557,-0.040240716,-0.010384701,0.09315688,-41.11875,-66.675,-20.737501,129.2407,-60.428097,-0.15058608,0.36258972,0.34892496,0.5977175,0.6241105,986.05096
1747666381169,0.023928227,10.73181,6.5659056,-0.1117119,-0.34819293,0.14691298,-41.325,-66.825005,-20.550001,129.06789,-60.287777,0.12317942,0.3632472,0.34674373,0.59845036,0.6242415,986.0588
1747666381190,0.20817557,10.770095,5.9294147,-0.09277509,-0.4508182,0.15363249,-41.25,-66.881256,-20.53125,129.02129,-60.165417,0.54502493,0.36607358,0.34219468,0.5982055,0.6253344,986.0588
1747666381211,0.14356937,10.679168,5.103891,-0.1721875,-0.2131918,0.16584979,-41.456253,-66.543755,-20.118752,128.97266,-60.05741,0.99226046,0.36827073,0.3386523,0.5980985,0.6260747,986.0683
1747666381234,-0.05503492,10.356136,5.4436717,-0.34811658,0.4159989,0.16279547,-41.775,-66.131256,-20.1,128.79642,-59.87306,1.2842406,0.36711857,0.33658826,0.6003568,0.6257028,986.0683
1747666381255,-0.34217364,10.212567,7.0875406,-0.49961102,0.74464417,0.062613636,-42.412502,-66.1125,-19.556252,128.20438,-59.255943,1.0501719,0.36155325,0.33734047,0.60450554,0.6245428,986.0783
1747666381278,-0.9379865,10.001999,8.554341,-0.42936158,0.5900954,0.024129158,-42.600002,-65.9625,-19.3125,127.80437,-58.536045,0.49216592,0.35248074,0.33882445,0.60990554,0.62367505,986.0783
1747666381298,-0.99302137,9.475577,8.671589,-0.19356778,0.22663084,0.07055488,-42.7125,-66.131256,-19.575,127.60313,-58.09234,0.19175766,0.34735546,0.33922267,0.612896,0.6234025,986.09467
1747666381318,-0.80877405,8.822337,7.759924,0.0049632764,-0.037873615,0.09315688,-42.412502,-65.86875,-20.081251,127.46948,-57.885048,0.15425651,0.34555206,0.3388013,0.61433834,0.62321407,986.09467
1747666381339,-0.49052864,7.9776707,6.0251274,0.14301872,-0.12828161,0.049174614,-42.018753,-65.943756,-20.400002,127.40718,-57.894,0.27794942,0.34663314,0.33811066,0.6143356,0.6229915,986.09955
1747666381360,-0.6771688,7.460821,4.802395,0.09842559,0.03848448,-0.008857539,-41.775,-66.15,-20.962502,127.405624,-58.02674,0.37333226,0.34781027,0.3384054,0.6137985,0.6227047,986.09955
1747666381382,-1.0887343,7.2933235,4.575077,0.019013166,0.076358095,0.008857539,-42.018753,-66.15,-21.206251,127.4153,-58.123055,0.3154405,0.3476807,0.3393311,0.61367506,0.622395,986.08124
1747666381403,-1.0097711,6.8865438,4.388437,-0.027412556,-0.083688475,0.11942407,-41.925003,-66.05625,-20.90625,127.359795,-58.124672,0.27795509,0.34747487,0.33937415,0.6140915,0.62207556,986.08124
1747666381425,-0.57188463,6.4008007,3.7878382,0.0043524117,-0.24495678,0.17928882,-42.206253,-65.756256,-20.71875,127.16248,-58.091743,0.6246866,0.34906352,0.3375128,0.6144886,0.6218067,986.06757
1747666381445,-0.3924229,6.2309103,3.3834512,0.03978257,-0.22357652,0.17989968,-42.318752,-65.662506,-20.475,127.0846,-58.098907,0.79985243,0.35063583,0.33611166,0.6145885,0.62158227,986.06757
1747666381466,-0.4139583,6.1830535,3.0723844,0.09414954,-0.12034036,0.20616686,-42.2625,-65.756256,-20.175001,126.91101,-58.15296,1.1332027,0.35272977,0.33478156,0.6147699,0.6209356,986.05096
1747666381489,0.11246266,6.2691956,2.7948167,0.12530364,0.092851445,0.23915356,-42.862503,-66.01875,-19.931252,126.48486,-58.346638,1.5460645,0.35530284,0.33456185,0.61587566,0.61848634,986.0212
1747666381509,0.38763726,6.4462643,3.2877383,0.092927806,0.22357652,0.18723005,-43.3125,-66.168755,-19.66875,126.08523,-58.491936,1.7161516,0.35586125,0.33555824,0.61736274,0.6161385,986.0212
1747666381531,0.23688944,6.8243303,3.641876,0.09048434,0.15821397,0.0962112,-43.518753,-66.525,-19.6875,125.724594,-58.60312,1.7731397,0.3557726,0.33686054,0.61870146,0.61413294,986.0058
1747666381557,-0.12921242,7.7096744,3.859623,0.08132137,0.089797124,0.030237807,-43.55625,-66.525,-19.462502,125.44684,-58.792812,1.7485913,0.3558739,0.3385495,0.6193542,0.6124854,986.0058
1747666381578,-0.4019942,8.080562,4.2257247,0.0721584,0.10506874,0.031459536,-43.66875,-66.637505,-19.5375,125.37086,-58.896713,1.6986328,0.35588366,0.33965835,0.6195017,0.61171615,986.0107
1747666381599,-0.19381863,8.425129,4.752146,0.055665053,0.11178826,0.037568185,-43.5,-66.80625,-19.275002,125.28202,-58.986233,1.6398778,0.35570952,0.34079462,0.6197786,0.61090446,986.0107
1747666381621,0.55752766,9.059227,5.639883,0.049556404,-6.108648E-4,-0.030237807,-43.36875,-66.9,-18.975,125.21006,-59.046604,1.6026618,0.35558304,0.34169653,0.6200186,0.6102304,986.018
1747666381641,0.6436693,9.485149,6.235696,0.1051451,-0.103236146,-0.13469568,-43.59375,-67.068756,-18.487501,125.26747,-59.103493,1.5719727,0.35598695,0.34200588,0.61932635,0.6105245,986.018
1747666381663,0.6723832,10.097712,6.6927247,0.23464844,-0.20158538,-0.309403,-43.18125,-66.84375,-18.1875,125.54456,-59.233334,1.4861028,0.3574299,0.34278172,0.6165419,0.6120626,986.0253
1747666381685,0.4833502,10.557134,6.920043,0.35193446,-0.20769402,-0.46150833,-43.18125,-66.975006,-17.587502,126.40038,-59.64968,1.13394,0.35902673,0.3443855,0.61276525,0.6140173,986.04364
1747666381705,0.083748795,11.109876,6.558727,0.4154644,-0.40378162,-0.49266243,-43.21875,-67.4625,-17.15625,127.437126,-60.17788,0.68432003,0.36179692,0.3471346,0.606433,0.617122,986.04364
1747666381725,0.148355,11.167303,5.5274205,0.33299765,-0.42577276,-0.3912589,-43.162502,-67.93125,-16.6875,128.29372,-60.62422,0.4605307,0.36522692,0.348377,0.60084903,0.6198574,986.0434
1747666381746,0.31106696,11.006984,5.1158547,0.094760396,-0.12705988,-0.309403,-42.881252,-68.4375,-16.25625,128.94774,-60.923595,0.26981658,0.367492,0.34924284,0.5967239,0.62201256,986.0434
1747666381767,0.20578274,10.593026,5.6303115,-0.11843141,0.17104214,-0.26175556,-42.99375,-68.850006,-15.806251,129.38835,-60.97295,-0.023812959,0.36701173,0.350273,0.5947074,0.6236459,986.0473
1747666381788,0.19621146,10.033105,6.8243303,-0.17340924,0.31642795,-0.2159407,-42.693752,-68.9625,-15.843751,129.64366,-60.803364,-0.44313157,0.36293158,0.35210866,0.5947245,0.62498236,986.0473
1747666381808,0.19860429,9.391829,6.8051877,-0.08849903,0.0036651888,-0.1725693,-42.6375,-69.375,-15.731251,129.82959,-60.59332,-0.8294198,0.36010236,0.35300443,0.5948733,0.62597126,986.0529
1747666381828,0.39481574,8.839087,5.2905307,-0.09155336,-0.36651886,-0.17134757,-42.506252,-69.39375,-15.76875,130.20561,-60.435135,-0.95702934,0.35994747,0.3519098,0.5936408,0.62784386,986.0529
1747666381849,0.40677986,8.568698,4.15394,-0.21006113,-0.3414734,-0.15363249,-42.0,-69.525,-15.975,130.61092,-60.29198,-0.88632375,0.36090043,0.34935933,0.59173536,0.63051426,986.0505
1747666381870,0.3062813,8.10449,3.7878382,-0.36216646,0.02565632,-0.10720677,-41.5875,-69.84375,-15.825001,130.90678,-60.028812,-0.86898255,0.3599923,0.34647685,0.59091544,0.6333863,986.0505
1747666381890,-0.050249275,8.006385,4.493721,-0.4586831,0.35674503,-0.06933315,-41.081253,-69.80625,-15.750001,130.99751,-59.624493,-1.0340433,0.35627538,0.3456379,0.5923382,0.6346162,986.0334
1747666381911,-0.6364908,7.771888,5.474778,-0.45929396,0.32925612,0.019853106,-40.331253,-69.881256,-15.712501,130.91655,-59.113956,-1.3455155,0.35098243,0.34549215,0.5950047,0.6351503,986.0334
1747666381933,-0.74177504,7.32443,5.4149575,-0.37132943,-0.014660755,0.15363249,-40.050003,-69.80625,-15.50625,130.75331,-58.59822,-1.533611,0.34702048,0.34415105,0.5976178,0.6356019,986.03827
1747666381956,-0.21296121,6.721439,4.17069,-0.2485456,-0.31398448,0.22937973,-39.80625,-69.543755,-16.425001,130.44331,-58.01863,-1.160229,0.34619796,0.33980086,0.59978247,0.6363515,986.03827
1747666381977,0.25603202,6.3122663,3.4887354,-0.16913319,-0.17043127,0.22571453,-39.99375,-69.375,-16.706251,130.14807,-57.73239,-0.6030186,0.3475057,0.33517116,0.60127854,0.6366822,986.0273
1747666381997,0.53359944,6.0825553,3.8572302,-0.033521205,0.025045456,0.1725693,-40.350002,-69.543755,-16.81875,129.86542,-57.61265,-0.30539355,0.34801525,0.33327875,0.6026753,0.63607633,986.0273
1747666382018,0.4211368,6.15434,4.0773697,0.21998768,0.07513637,0.083383046,-40.55625,-69.46875,-16.66875,129.63132,-57.679646,-0.17480105,0.34857112,0.3334291,0.60356873,0.63484484,986.01337
1747666382039,0.5599205,6.762117,3.5365918,0.34643668,0.12767074,0.043065965,-40.350002,-69.543755,-16.5,129.48862,-57.97763,-0.14558128,0.35041034,0.3358701,0.60335404,0.6327463,986.01337
1747666382059,0.31345975,7.2909307,3.3810585,0.3079522,0.16737695,0.050396346,-39.975002,-69.693756,-16.331251,129.3595,-58.37503,-0.1754169,0.3519268,0.33864677,0.60299826,0.6307607,986.01605
1747666382079,0.3924229,7.984849,3.723232,0.23220497,0.13255766,0.07910699,-39.1875,-69.84375,-16.63125,129.19804,-58.725624,-0.20563217,0.3531205,0.3410243,0.60297865,0.62882835,986.01605
1747666382099,0.5886344,8.578269,4.938786,0.24442227,0.15027274,0.062002774,-38.625,-70.162506,-16.987501,129.01082,-59.00274,-0.19182725,0.3541268,0.34291703,0.6031727,0.6270445,986.0097
1747666382121,0.33020952,8.803194,5.8624153,0.4069123,0.08735366,0.010079269,-38.381252,-70.162506,-16.85625,128.82925,-59.386482,-0.21213149,0.35528594,0.34518778,0.6030255,0.62528193,986.0097
1747666382142,0.25842485,9.114262,5.608776,0.5956695,-0.048258316,-0.01924224,-38.53125,-70.36875,-16.462502,128.80606,-59.888485,-0.22961196,0.35869348,0.34882167,0.6011832,0.6230901,986.0136
1747666382162,0.40677986,9.724431,5.1182475,0.5926152,-0.035430156,-0.054061532,-38.68125,-70.818756,-16.66875,128.85988,-60.54474,-0.21307278,0.36258984,0.35206404,0.5987905,0.6213126,986.0136
1747666382182,0.09092726,10.109675,5.0105705,0.4832704,-0.023823727,-0.07177661,-38.25,-70.8375,-16.706251,128.9468,-61.19729,-0.2375339,0.3660142,0.3553478,0.5964122,0.61972094,986.0214
1747666382202,0.043070808,10.69831,5.0392847,0.32505643,-0.02687805,-0.062613636,-37.78125,-71.15625,-16.48125,129.05882,-61.731537,-0.29497325,0.36860847,0.35800472,0.5943692,0.618616,986.0214
1747666382225,0.13399807,11.298908,5.1756754,0.15645774,-0.07208204,-0.01802051,-37.068752,-71.08125,-16.125,129.15636,-62.096756,-0.3388858,0.37076208,0.35984898,0.5926732,0.6178857,986.02167
1747666382245,-0.2943172,11.207981,5.0679984,-0.002367101,-0.032986697,0.08704823,-36.9375,-71.193756,-15.187501,129.19032,-62.345993,-0.27271655,0.37193504,0.36001155,0.592135,0.61760193,986.0302
1747666382265,-0.2536392,10.916057,5.2809596,-0.15263984,0.12217296,0.160352,-37.03125,-71.4,-14.887501,129.07837,-62.33526,-0.19000474,0.37201145,0.35952616,0.5929594,0.6170474,986.0302
1747666382288,-0.25603202,10.080962,5.8217373,-0.26870415,0.2687805,0.19028437,-36.80625,-71.4,-15.01875,128.58711,-62.044933,-0.055642664,0.37003902,0.3587228,0.5958866,0.61588,986.0319
1747666382308,-0.29192436,9.765109,6.1854467,-0.35605782,0.24740024,0.14874557,-36.73125,-71.5875,-15.225,128.20052,-61.704266,-0.028858196,0.36719444,0.35799018,0.5989839,0.61500376,986.0319
1747666382329,-0.552742,9.549755,6.4414787,-0.3994292,0.045814857,0.13225223,-36.45,-71.34375,-15.4875,127.91764,-61.265324,-0.0024634022,0.3641424,0.35640302,0.60183495,0.61495686,986.0495
1747666382350,-0.7178468,9.008977,6.101698,-0.3701077,-0.07696896,0.16096286,-36.412502,-71.043755,-15.618751,127.74025,-60.79779,0.14286467,0.36175984,0.35259798,0.60446334,0.6159777,986.0495
1747666382371,-0.64606214,8.606983,6.1328044,-0.28153232,0.10873393,0.14508039,-36.881252,-70.89375,-15.975,127.55504,-60.367752,0.33208346,0.3601299,0.3498393,0.6064998,0.6165038,986.0561
1747666382393,-0.7728817,8.149954,5.953343,-0.1220966,0.3090976,0.12797616,-36.73125,-70.575005,-16.143751,127.317406,-60.03843,0.39075312,0.35732776,0.34902212,0.6092691,0.61586654,986.0561
1747666382414,-0.83988076,7.690532,5.237889,-0.0787252,0.32498005,0.13347395,-36.862503,-70.481255,-16.44375,126.95072,-59.830708,0.2938938,0.35500905,0.34999496,0.611498,0.6144447,986.0527
1747666382435,-1.0217353,7.3603225,4.4745784,-0.20822853,0.194255,0.12614357,-36.9,-70.51875,-16.7625,126.65132,-59.705547,0.21284808,0.3528599,0.3505927,0.6135926,0.6132526,986.0527
1747666382456,-1.0289137,7.1306114,4.249653,-0.33223408,0.046425723,0.16523892,-36.412502,-70.3125,-16.837502,126.408714,-59.45927,0.20349485,0.35079053,0.34963727,0.61564654,0.6129267,986.0549
1747666382476,-0.4833502,6.735796,4.5559344,-0.30474517,-0.032986697,0.18723005,-36.15,-70.2375,-17.38125,126.03655,-58.89787,0.41810292,0.3486791,0.3466398,0.6184182,0.61304367,986.0549
1747666382496,-0.05742774,6.5443697,4.476971,-0.13675736,-0.056199558,0.13347395,-36.05625,-70.2375,-17.75625,125.8181,-58.596684,0.6287931,0.3478875,0.3442191,0.62012804,0.6131303,986.0417
1747666382518,-0.0047856453,6.491728,4.1347976,0.083764836,0.043371398,0.0736092,-35.8875,-69.84375,-18.09375,125.669785,-58.508213,0.7722788,0.3479756,0.34320265,0.6209392,0.612829,986.0417
1747666382539,-0.031106694,6.63769,3.562913,0.29634577,0.216857,0.032681264,-36.131252,-69.693756,-18.112501,125.5434,-58.667057,0.77825403,0.3486544,0.3450154,0.6211056,0.61125475,986.03265
1747666382560,-0.09810573,6.91765,3.249453,0.35621053,0.28893903,0.024129158,-36.0,-69.543755,-18.09375,125.36747,-59.10746,0.61574507,0.34919885,0.34840605,0.6209735,0.60915124,986.03265
1747666382580,-0.059820566,7.3340015,2.940779,0.2786307,0.23640467,0.047952887,-35.68125,-69.525,-18.075,125.20197,-59.512714,0.45487508,0.3498594,0.35302654,0.6208551,0.60622567,986.0258
1747666382602,-0.3804588,7.82453,3.1154552,0.07887791,0.15638138,0.06811142,-35.662502,-69.731255,-18.1875,125.02902,-59.817604,0.36250877,0.35018802,0.35547006,0.6210366,0.60441947,986.0258
1747666382623,-0.50009996,8.338987,3.9577286,-0.039629854,0.08185588,0.09071342,-35.34375,-69.693756,-18.337502,124.86437,-59.931747,0.32640445,0.3499259,0.35646668,0.6216724,0.6033298,986.0114
1747666382645,-0.20817557,8.652447,4.627719,-0.0041996953,-0.023212861,0.10354158,-35.25,-69.881256,-18.45,124.70273,-59.916832,0.36319435,0.34976545,0.35639256,0.6224459,0.60266876,986.0114
1747666382667,0.11485548,8.949157,4.668397,0.155236,-0.04092794,0.05650499,-35.11875,-69.693756,-17.98125,124.52118,-59.991108,0.5411059,0.35122943,0.35625318,0.62257916,0.6017614,986.02264
1747666382688,0.04546363,9.2075815,4.8454657,0.18761185,0.046425723,-0.0015271619,-35.268753,-69.84375,-17.79375,124.45784,-60.183414,0.60441583,0.35241854,0.35727426,0.6221265,0.6009284,986.02435
1747666382709,0.0023928226,9.547362,5.6853466,0.19616395,0.07086031,-0.047952887,-35.34375,-70.106255,-17.79375,124.45535,-60.45281,0.5309194,0.35306266,0.35890046,0.62153417,0.60019374,986.02435
1747666382730,0.33738798,9.870394,6.6352973,0.2627482,-0.054366965,-0.12186752,-35.2125,-70.2375,-18.35625,124.54973,-60.681553,0.42472693,0.3537735,0.36060226,0.6205186,0.5998058,986.0417
1747666382751,0.59342,10.191031,6.73101,0.35071275,-0.42271844,-0.25809038,-35.2125,-70.51875,-18.675001,124.83187,-60.969963,0.3438916,0.35628334,0.3620537,0.6174662,0.60059536,986.0417
1747666382773,0.526421,10.454242,5.3216376,0.32078037,-0.64507324,-0.32589635,-34.74375,-70.70625,-18.6375,125.410194,-61.33158,0.34027132,0.36041668,0.36190763,0.6128861,0.60290414,986.0556
1747666382793,0.2943172,10.865808,4.347759,0.12530364,-0.34941465,-0.32772896,-34.425003,-70.668755,-18.65625,126.1619,-61.683556,0.36374596,0.3650892,0.3612376,0.60688925,0.60654986,986.0556
1747666382813,0.08853444,10.939985,4.4817567,-0.12576179,0.13377939,-0.2525926,-34.55625,-70.59375,-18.4125,126.801346,-61.87189,0.22679259,0.3652426,0.36174223,0.6044541,0.60858494,986.0549
1747666382835,0.0023928226,10.41835,5.9294147,-0.4079813,0.38973173,-0.19639303,-34.29375,-70.55625,-18.13125,127.20099,-61.625156,-0.3376349,0.36148074,0.3629419,0.6049327,0.60964024,986.0549
1747666382857,0.0023928226,9.915857,7.0348988,-0.5277108,-0.04214967,-0.13713914,-34.237503,-70.818756,-17.831251,127.37527,-60.952118,-0.77798885,0.35525212,0.36207506,0.60690063,0.6118573,986.06024
1747666382879,0.09810573,9.186047,6.640083,-0.5325977,-0.5045743,-0.07849612,-34.050003,-70.96875,-17.90625,127.65934,-60.318718,-0.7409334,0.35304585,0.35754013,0.6073081,0.61538655,986.06024
1747666382900,0.634098,8.669196,5.9174504,-0.45379618,-0.57909983,-0.06017018,-33.881252,-70.78125,-17.925001,127.987785,-59.716236,-0.4613889,0.35282156,0.35128272,0.6069257,0.61948246,986.0798
1747666382920,0.8997013,8.133204,4.7712884,-0.291917,-0.2913825,-0.088269964,-33.862503,-70.6875,-18.09375,128.29425,-59.2425,-0.1680798,0.3532795,0.34467492,0.606051,0.6237748,986.0798
1747666382941,0.90448695,7.960921,4.2329035,-0.24121523,0.11911863,-0.09926552,-34.0875,-70.425,-18.675001,128.51198,-58.921947,-0.06234745,0.35250637,0.34226638,0.605878,0.62570345,986.0671
